File: BA_12.chi
D:\DATA\UserData\CuiTian20190403\\CWH\BA\BA_12.tif: 2-theta Scan
2-Theta Angle (Degrees)
Intensity
       1481
 0.011054  49.2936
 0.0331621  47.9351
 0.0552701  47.9207
 0.0773782  46.452
 0.0994862  43.1762
 0.121594  42.2155
 0.143702  41.2714
 0.16581  41.5077
 0.187918  40.7943
 0.210026  40.6638
 0.232135  40.4732
 0.254243  39.7832
 0.276351  39.7798
 0.298459  39.9335
 0.320567  40.6837
 0.342675  40.202
 0.364783  40.1625
 0.386891  40.3376
 0.408999  40.4149
 0.431107  40.9048
 0.453215  40.8064
 0.475323  40.6994
 0.497431  40.7745
 0.519539  41.2794
 0.541647  41.1396
 0.563755  40.7642
 0.585863  40.6194
 0.607971  40.9069
 0.630079  40.7076
 0.652188  39.8602
 0.674296  39.4731
 0.696404  40.2871
 0.718512  41.2919
 0.74062  41.0852
 0.762728  40.598
 0.784836  40.4466
 0.806944  40.2955
 0.829052  40.5267
 0.85116  39.6699
 0.873268  39.9121
 0.895376  40.4447
 0.917484  40.6576
 0.939592  40.7116
 0.9617  41.0428
 0.983808  40.7745
 1.00592  40.5105
 1.02802  40.0672
 1.05013  40.1499
 1.07224  40.2198
 1.09435  40.0102
 1.11646  39.9644
 1.13856  40.3185
 1.16067  40.5618
 1.18278  40.4433
 1.20489  41.0457
 1.227  41.7528
 1.2491  41.7565
 1.27121  41.6871
 1.29332  41.4117
 1.31543  41.5858
 1.33754  41.7351
 1.35965  42.02
 1.38175  42.2987
 1.40386  42.1441
 1.42597  41.9923
 1.44808  42.3131
 1.47019  42.1279
 1.49229  42.7034
 1.5144  42.6444
 1.53651  42.5513
 1.55862  43.1549
 1.58073  43.6043
 1.60283  43.7352
 1.62494  43.8641
 1.64705  44.2749
 1.66916  44.9796
 1.69127  45.1088
 1.71337  45.1897
 1.73548  46.113
 1.75759  46.7976
 1.7797  47.3032
 1.80181  48.1989
 1.82391  49.5147
 1.84602  51.6412
 1.86813  55.7004
 1.89024  64.4153
 1.91235  82.576
 1.93445  113.302
 1.95656  151.035
 1.97867  189.104
 2.00078  225.939
 2.02289  260.98
 2.04499  297.323
 2.0671  331.916
 2.08921  372.782
 2.11132  416.782
 2.13343  465.931
 2.15553  521.208
 2.17764  576.08
 2.19975  621.012
 2.22186  658.032
 2.24397  690.494
 2.26608  720.741
 2.28818  750.988
 2.31029  776.932
 2.3324  801.451
 2.35451  827.059
 2.37662  852.27
 2.39872  877.908
 2.42083  905.286
 2.44294  928.428
 2.46505  949.366
 2.48716  971.307
 2.50926  989.51
 2.53137  1009.48
 2.55348  1030.37
 2.57559  1051.35
 2.5977  1069.35
 2.6198  1089.09
 2.64191  1108.32
 2.66402  1124.83
 2.68613  1141.45
 2.70824  1159.76
 2.73034  1178.13
 2.75245  1195.42
 2.77456  1210.32
 2.79667  1226.04
 2.81878  1241.35
 2.84088  1257.15
 2.86299  1273.37
 2.8851  1289.61
 2.90721  1306.42
 2.92932  1320.2
 2.95142  1333.11
 2.97353  1346.46
 2.99564  1361.34
 3.01775  1374.06
 3.03986  1385.32
 3.06196  1395.46
 3.08407  1404.99
 3.10618  1415.68
 3.12829  1426.05
 3.1504  1440.05
 3.17251  1451.79
 3.19461  1460.67
 3.21672  1469.55
 3.23883  1479.58
 3.26094  1488.81
 3.28305  1497.02
 3.30515  1506.54
 3.32726  1513.43
 3.34937  1520.38
 3.37148  1528.93
 3.39359  1535.92
 3.41569  1541.46
 3.4378  1551.27
 3.45991  1560.58
 3.48202  1569.01
 3.50413  1580.77
 3.52623  1590.13
 3.54834  1595.32
 3.57045  1600.43
 3.59256  1606.69
 3.61467  1616.79
 3.63677  1623.14
 3.65888  1627.59
 3.68099  1631.18
 3.7031  1637.04
 3.72521  1643.28
 3.74731  1647.68
 3.76942  1650.43
 3.79153  1655.04
 3.81364  1664.59
 3.83575  1671.29
 3.85785  1676.11
 3.87996  1680.99
 3.90207  1685.19
 3.92418  1686.87
 3.94629  1691.44
 3.9684  1693.36
 3.9905  1696.76
 4.01261  1703.63
 4.03472  1707.99
 4.05683  1713.78
 4.07894  1716.62
 4.10104  1717.95
 4.12315  1723.77
 4.14526  1728.28
 4.16737  1727.94
 4.18948  1728.94
 4.21158  1730.66
 4.23369  1736.69
 4.2558  1739.27
 4.27791  1738.11
 4.30002  1739.62
 4.32212  1743.84
 4.34423  1748.31
 4.36634  1750.14
 4.38845  1753.52
 4.41056  1757.86
 4.43266  1758.49
 4.45477  1760.35
 4.47688  1762.44
 4.49899  1762.98
 4.5211  1762.54
 4.5432  1764.38
 4.56531  1766.76
 4.58742  1765.78
 4.60953  1766.04
 4.63164  1766.88
 4.65374  1770.28
 4.67585  1772.04
 4.69796  1771.36
 4.72007  1771.1
 4.74218  1772.57
 4.76429  1774.58
 4.78639  1774.81
 4.8085  1775.09
 4.83061  1775.14
 4.85272  1775.57
 4.87483  1775.98
 4.89693  1777.62
 4.91904  1779.32
 4.94115  1779.74
 4.96326  1779.74
 4.98537  1779.53
 5.00747  1775.62
 5.02958  1777.25
 5.05169  1779.98
 5.0738  1780.38
 5.09591  1779.12
 5.11801  1779.85
 5.14012  1781.21
 5.16223  1781.87
 5.18434  1783.91
 5.20645  1784.71
 5.22855  1780.55
 5.25066  1777.93
 5.27277  1777.7
 5.29488  1776.31
 5.31699  1776.23
 5.33909  1776.18
 5.3612  1776.58
 5.38331  1777.84
 5.40542  1777.41
 5.42753  1777.07
 5.44963  1776.39
 5.47174  1775.18
 5.49385  1773.68
 5.51596  1773.6
 5.53807  1776.58
 5.56017  1777.3
 5.58228  1775.56
 5.60439  1773.27
 5.6265  1772.75
 5.64861  1770.99
 5.67072  1770.43
 5.69282  1769.99
 5.71493  1769.04
 5.73704  1768.75
 5.75915  1771.19
 5.78126  1771.01
 5.80336  1768.99
 5.82547  1768.06
 5.84758  1770.25
 5.86969  1770.5
 5.8918  1767.65
 5.9139  1765.69
 5.93601  1765
 5.95812  1765.36
 5.98023  1764
 6.00234  1762.32
 6.02444  1762.51
 6.04655  1762.41
 6.06866  1761.95
 6.09077  1761.33
 6.11288  1760.98
 6.13498  1759.45
 6.15709  1758.59
 6.1792  1757.7
 6.20131  1757.8
 6.22342  1758.09
 6.24552  1758.52
 6.26763  1759.43
 6.28974  1760.63
 6.31185  1758.87
 6.33396  1759.62
 6.35606  1760.26
 6.37817  1758.17
 6.40028  1755.85
 6.42239  1755.62
 6.4445  1755.04
 6.4666  1753.2
 6.48871  1751.55
 6.51082  1751.17
 6.53293  1749.88
 6.55504  1748.48
 6.57715  1748.17
 6.59925  1746.6
 6.62136  1747.2
 6.64347  1746.62
 6.66558  1744.3
 6.68769  1742.48
 6.70979  1742.87
 6.7319  1743.87
 6.75401  1744.49
 6.77612  1743.1
 6.79823  1741.68
 6.82033  1739.38
 6.84244  1739.43
 6.86455  1739.21
 6.88666  1739.44
 6.90877  1739.29
 6.93087  1738.39
 6.95298  1737.9
 6.97509  1738.11
 6.9972  1736.77
 7.01931  1735.43
 7.04141  1733.26
 7.06352  1731.85
 7.08563  1731.51
 7.10774  1729.01
 7.12985  1729.28
 7.15195  1730.52
 7.17406  1730.84
 7.19617  1730.3
 7.21828  1729.24
 7.24039  1728.37
 7.26249  1727.86
 7.2846  1725.74
 7.30671  1724.67
 7.32882  1725.39
 7.35093  1725.44
 7.37303  1724.39
 7.39514  1723.78
 7.41725  1722.57
 7.43936  1723.08
 7.46147  1721.29
 7.48358  1720.74
 7.50568  1720.01
 7.52779  1719.23
 7.5499  1718.53
 7.57201  1720.12
 7.59412  1721.5
 7.61622  1720.3
 7.63833  1719.23
 7.66044  1719.68
 7.68255  1718.38
 7.70466  1716.53
 7.72676  1716.28
 7.74887  1715.35
 7.77098  1714.98
 7.79309  1714.65
 7.8152  1714.52
 7.8373  1713.96
 7.85941  1713.97
 7.88152  1713.85
 7.90363  1712.87
 7.92574  1712.73
 7.94784  1711.33
 7.96995  1710.95
 7.99206  1711.17
 8.01417  1711.47
 8.03628  1711.2
 8.05838  1710.85
 8.08049  1710.3
 8.1026  1710.15
 8.12471  1712.39
 8.14682  1711.96
 8.16893  1710.15
 8.19103  1708.12
 8.21314  1707.49
 8.23525  1707.35
 8.25736  1708.72
 8.27946  1707.47
 8.30157  1706.42
 8.32368  1705.42
 8.34579  1707.97
 8.3679  1712.12
 8.39001  1714.78
 8.41211  1713.8
 8.43422  1713.85
 8.45633  1715.51
 8.47844  1719.07
 8.50055  1722.93
 8.52265  1727.17
 8.54476  1732.02
 8.56687  1735.18
 8.58898  1733.97
 8.61109  1729.4
 8.63319  1726.24
 8.6553  1724.37
 8.67741  1719.89
 8.69952  1715.83
 8.72163  1713.22
 8.74373  1711.09
 8.76584  1708.86
 8.78795  1709.58
 8.81006  1708.88
 8.83217  1709.61
 8.85427  1711.45
 8.87638  1715.56
 8.89849  1720.04
 8.9206  1724.04
 8.94271  1727.43
 8.96482  1731.66
 8.98692  1734.85
 9.00903  1735.73
 9.03114  1733.63
 9.05325  1730.95
 9.07535  1734.25
 9.09746  1742.24
 9.11957  1748.21
 9.14168  1748.08
 9.16379  1738.97
 9.1859  1727.88
 9.208  1719
 9.23011  1713.06
 9.25222  1709.37
 9.27433  1706.89
 9.29644  1705.55
 9.31854  1705.44
 9.34065  1706.84
 9.36276  1707.22
 9.38487  1707.88
 9.40698  1709.51
 9.42908  1711.02
 9.45119  1713.9
 9.4733  1722.83
 9.49541  1750.04
 9.51752  1762.21
 9.53962  1747.68
 9.56173  1727.31
 9.58384  1720.33
 9.60595  1718.52
 9.62806  1717.29
 9.65016  1716.13
 9.67227  1714.96
 9.69438  1714.01
 9.71649  1714.69
 9.7386  1717.78
 9.7607  1719.22
 9.78281  1721.16
 9.80492  1724.58
 9.82703  1728.43
 9.84914  1731.33
 9.87124  1734.14
 9.89335  1737.91
 9.91546  1741.37
 9.93757  1744.72
 9.95968  1746.26
 9.98178  1745.6
 10.0039  1744.96
 10.026  1743.82
 10.0481  1743.56
 10.0702  1744.02
 10.0923  1741.25
 10.1144  1737.79
 10.1365  1735.86
 10.1586  1733.77
 10.1808  1733.94
 10.2029  1733.04
 10.225  1732.14
 10.2471  1731.53
 10.2692  1731.52
 10.2913  1731.98
 10.3134  1732.75
 10.3355  1735.06
 10.3576  1735.96
 10.3797  1735.06
 10.4018  1735.51
 10.4239  1737.14
 10.4461  1737.7
 10.4682  1738.43
 10.4903  1741.2
 10.5124  1743.39
 10.5345  1744.46
 10.5566  1749.78
 10.5787  1762.22
 10.6008  1772.7
 10.6229  1771.46
 10.645  1766.47
 10.6671  1767.72
 10.6892  1773.51
 10.7113  1779.99
 10.7335  1787.15
 10.7556  1797.85
 10.7777  1813.46
 10.7998  1832.28
 10.8219  1854.88
 10.844  1883.4
 10.8661  1928.54
 10.8882  1998.01
 10.9103  2085.46
 10.9324  2151.29
 10.9545  2193
 10.9766  2212.82
 10.9988  2193.08
 11.0209  2153.46
 11.043  2110.48
 11.0651  2071.19
 11.0872  2037.87
 11.1093  2005.48
 11.1314  1968.49
 11.1535  1929.71
 11.1756  1891.17
 11.1977  1857.16
 11.2198  1829.8
 11.2419  1809.85
 11.2641  1798.36
 11.2862  1791.22
 11.3083  1786.56
 11.3304  1784.25
 11.3525  1780.63
 11.3746  1778.82
 11.3967  1780.2
 11.4188  1781.71
 11.4409  1781.77
 11.463  1783.1
 11.4851  1785.98
 11.5072  1788.44
 11.5293  1791.77
 11.5515  1796.58
 11.5736  1800.27
 11.5957  1804.25
 11.6178  1810.38
 11.6399  1817.57
 11.662  1825.83
 11.6841  1832.88
 11.7062  1835.67
 11.7283  1834.87
 11.7504  1831.65
 11.7725  1826.9
 11.7946  1822.88
 11.8168  1817.75
 11.8389  1811.51
 11.861  1806.34
 11.8831  1801.36
 11.9052  1798.79
 11.9273  1795.21
 11.9494  1791.23
 11.9715  1790.29
 11.9936  1789.94
 12.0157  1789.96
 12.0378  1791.6
 12.0599  1792.96
 12.0821  1793.34
 12.1042  1794.76
 12.1263  1796.79
 12.1484  1797.76
 12.1705  1800.93
 12.1926  1804.65
 12.2147  1808.53
 12.2368  1813.79
 12.2589  1819.62
 12.281  1825.67
 12.3031  1830.76
 12.3252  1832.51
 12.3473  1834.9
 12.3695  1836.49
 12.3916  1839.4
 12.4137  1842.06
 12.4358  1846.16
 12.4579  1853.1
 12.48  1868.59
 12.5021  1893.05
 12.5242  1930.16
 12.5463  1977.53
 12.5684  2025.7
 12.5905  2081.8
 12.6126  2166.91
 12.6348  2300.73
 12.6569  2478.81
 12.679  2669.56
 12.7011  2769.69
 12.7232  2716.7
 12.7453  2557.03
 12.7674  2374.89
 12.7895  2214.38
 12.8116  2085.83
 12.8337  1982.89
 12.8558  1913.04
 12.8779  1869.55
 12.9  1844.1
 12.9222  1830.62
 12.9443  1822.11
 12.9664  1815.76
 12.9885  1813.4
 13.0106  1811.77
 13.0327  1809.46
 13.0548  1807.26
 13.0769  1803.76
 13.099  1803.43
 13.1211  1804.14
 13.1432  1802.12
 13.1653  1801.95
 13.1875  1800.88
 13.2096  1798.38
 13.2317  1796.65
 13.2538  1795.65
 13.2759  1795.41
 13.298  1794.19
 13.3201  1793.89
 13.3422  1793.58
 13.3643  1792.91
 13.3864  1793.48
 13.4085  1792.92
 13.4306  1793.25
 13.4527  1792.98
 13.4749  1791.63
 13.497  1791.78
 13.5191  1792.14
 13.5412  1792.96
 13.5633  1792.81
 13.5854  1792.94
 13.6075  1793.05
 13.6296  1793.44
 13.6517  1794.16
 13.6738  1794.25
 13.6959  1794.35
 13.718  1794.92
 13.7402  1796.86
 13.7623  1797.09
 13.7844  1797.13
 13.8065  1797.21
 13.8286  1796.87
 13.8507  1797.15
 13.8728  1797.92
 13.8949  1797.86
 13.917  1798.05
 13.9391  1797.11
 13.9612  1797.4
 13.9833  1798.63
 14.0054  1800.08
 14.0276  1802.55
 14.0497  1804.66
 14.0718  1806.59
 14.0939  1808.31
 14.116  1810.61
 14.1381  1813.5
 14.1602  1816.9
 14.1823  1821.47
 14.2044  1823.71
 14.2265  1825.51
 14.2486  1828.74
 14.2707  1828.85
 14.2929  1823.49
 14.315  1817.23
 14.3371  1813.54
 14.3592  1812.78
 14.3813  1811.35
 14.4034  1810.22
 14.4255  1809.32
 14.4476  1809.91
 14.4697  1810.54
 14.4918  1811.19
 14.5139  1812.17
 14.536  1812.18
 14.5582  1812.29
 14.5803  1811.1
 14.6024  1812.42
 14.6245  1813.71
 14.6466  1813.9
 14.6687  1814.72
 14.6908  1815.94
 14.7129  1817.12
 14.735  1817.38
 14.7571  1816.67
 14.7792  1815.65
 14.8013  1816.6
 14.8234  1818.15
 14.8456  1819.78
 14.8677  1819.62
 14.8898  1819.54
 14.9119  1819.32
 14.934  1818.73
 14.9561  1819.87
 14.9782  1820.54
 15.0003  1821.68
 15.0224  1823.41
 15.0445  1824.11
 15.0666  1824.85
 15.0887  1826.23
 15.1109  1827.04
 15.133  1827.58
 15.1551  1827.4
 15.1772  1827.24
 15.1993  1827.03
 15.2214  1826.57
 15.2435  1826.47
 15.2656  1828.42
 15.2877  1830.52
 15.3098  1830.84
 15.3319  1831.93
 15.354  1833.28
 15.3761  1834.59
 15.3983  1834.77
 15.4204  1836.14
 15.4425  1838.62
 15.4646  1841.3
 15.4867  1843.68
 15.5088  1846.35
 15.5309  1847.71
 15.553  1848.68
 15.5751  1849.53
 15.5972  1848.8
 15.6193  1848.85
 15.6414  1849.49
 15.6636  1849.86
 15.6857  1849.54
 15.7078  1849.36
 15.7299  1849.99
 15.752  1849.94
 15.7741  1850.26
 15.7962  1850.9
 15.8183  1851.79
 15.8404  1851.49
 15.8625  1851.89
 15.8846  1851.99
 15.9067  1852.21
 15.9289  1852.8
 15.951  1852.1
 15.9731  1850.59
 15.9952  1848.72
 16.0173  1846.18
 16.0394  1845.24
 16.0615  1844.71
 16.0836  1843.53
 16.1057  1842.82
 16.1278  1842.19
 16.1499  1841.95
 16.172  1840.98
 16.1941  1840.17
 16.2163  1839.21
 16.2384  1840.42
 16.2605  1840.67
 16.2826  1839.96
 16.3047  1840.28
 16.3268  1839.9
 16.3489  1839.28
 16.371  1839.3
 16.3931  1838.73
 16.4152  1839.12
 16.4373  1840.14
 16.4594  1839.17
 16.4816  1838.55
 16.5037  1837.78
 16.5258  1837.32
 16.5479  1837.74
 16.57  1837.05
 16.5921  1835.57
 16.6142  1835.52
 16.6363  1836.31
 16.6584  1837.15
 16.6805  1836.32
 16.7026  1834.86
 16.7247  1834.43
 16.7468  1833.51
 16.769  1833.05
 16.7911  1833.14
 16.8132  1834.1
 16.8353  1834.94
 16.8574  1834.24
 16.8795  1833.54
 16.9016  1834.33
 16.9237  1835.84
 16.9458  1837.59
 16.9679  1842.26
 16.99  1845.9
 17.0121  1850.91
 17.0343  1860.81
 17.0564  1871.7
 17.0785  1884.63
 17.1006  1898.16
 17.1227  1907.84
 17.1448  1912.33
 17.1669  1912.58
 17.189  1908.03
 17.2111  1897.99
 17.2332  1887.45
 17.2553  1877.33
 17.2774  1868.56
 17.2995  1860.15
 17.3217  1853.61
 17.3438  1848.66
 17.3659  1844.27
 17.388  1839.87
 17.4101  1835.42
 17.4322  1832.32
 17.4543  1829.44
 17.4764  1827.63
 17.4985  1825.39
 17.5206  1822.03
 17.5427  1822.12
 17.5648  1822.52
 17.587  1823.19
 17.6091  1823.65
 17.6312  1822.75
 17.6533  1821.52
 17.6754  1821.14
 17.6975  1822.59
 17.7196  1824.73
 17.7417  1827.37
 17.7638  1830.29
 17.7859  1834.41
 17.808  1841.87
 17.8301  1852.03
 17.8523  1862.46
 17.8744  1875.18
 17.8965  1889.63
 17.9186  1904.26
 17.9407  1914.08
 17.9628  1921.69
 17.9849  1930.85
 18.007  1939.7
 18.0291  1943.93
 18.0512  1923.33
 18.0733  1900.26
 18.0954  1878.41
 18.1175  1858.74
 18.1397  1840.92
 18.1618  1827.28
 18.1839  1818.44
 18.206  1813.58
 18.2281  1812.52
 18.2502  1813.84
 18.2723  1815.9
 18.2944  1815.5
 18.3165  1811.76
 18.3386  1808.7
 18.3607  1805.19
 18.3828  1798.6
 18.405  1790.48
 18.4271  1782.71
 18.4492  1774.95
 18.4713  1770.33
 18.4934  1765.15
 18.5155  1760.63
 18.5376  1756.69
 18.5597  1753.12
 18.5818  1749.58
 18.6039  1746.67
 18.626  1744.92
 18.6481  1742.44
 18.6702  1740.87
 18.6924  1739
 18.7145  1735.79
 18.7366  1733.26
 18.7587  1731.02
 18.7808  1729.52
 18.8029  1727.8
 18.825  1726.03
 18.8471  1723.65
 18.8692  1720.74
 18.8913  1719.38
 18.9134  1717.66
 18.9355  1716.52
 18.9577  1715.23
 18.9798  1713.03
 19.0019  1711.03
 19.024  1709.7
 19.0461  1708.67
 19.0682  1706.57
 19.0903  1702.65
 19.1124  1701.21
 19.1345  1700.56
 19.1566  1698.3
 19.1787  1696.72
 19.2008  1695.81
 19.223  1695.05
 19.2451  1693.44
 19.2672  1692.73
 19.2893  1692.38
 19.3114  1689.84
 19.3335  1686.99
 19.3556  1683.64
 19.3777  1682.1
 19.3998  1680.64
 19.4219  1678.09
 19.444  1674.84
 19.4661  1672.33
 19.4882  1670.63
 19.5104  1667.79
 19.5325  1664.99
 19.5546  1661.37
 19.5767  1659.12
 19.5988  1657.6
 19.6209  1655.48
 19.643  1653.18
 19.6651  1650.38
 19.6872  1648.88
 19.7093  1648.35
 19.7314  1645.38
 19.7535  1643.24
 19.7757  1642.79
 19.7978  1642.19
 19.8199  1641.31
 19.842  1639.76
 19.8641  1638.21
 19.8862  1638.16
 19.9083  1636.63
 19.9304  1634.89
 19.9525  1635.68
 19.9746  1634.58
 19.9967  1632.07
 20.0188  1631.45
 20.0409  1630.72
 20.0631  1629.29
 20.0852  1628.93
 20.1073  1629.4
 20.1294  1629.95
 20.1515  1629.49
 20.1736  1629.35
 20.1957  1628.84
 20.2178  1627.54
 20.2399  1625.82
 20.262  1624.03
 20.2841  1621.53
 20.3062  1620.39
 20.3284  1618.37
 20.3505  1616.22
 20.3726  1614.35
 20.3947  1612.29
 20.4168  1610.5
 20.4389  1608.12
 20.461  1606.12
 20.4831  1604.38
 20.5052  1602.15
 20.5273  1600.81
 20.5494  1599.67
 20.5715  1597.21
 20.5936  1595.4
 20.6158  1595.48
 20.6379  1595.98
 20.66  1595.76
 20.6821  1595.34
 20.7042  1595.06
 20.7263  1595.17
 20.7484  1594.79
 20.7705  1596.05
 20.7926  1597.61
 20.8147  1598.9
 20.8368  1602.59
 20.8589  1606.98
 20.8811  1611.95
 20.9032  1618.3
 20.9253  1623.63
 20.9474  1627.03
 20.9695  1629.55
 20.9916  1634.8
 21.0137  1638.79
 21.0358  1643.59
 21.0579  1649.42
 21.08  1655.61
 21.1021  1661.64
 21.1242  1663.67
 21.1464  1665.85
 21.1685  1664.63
 21.1906  1659.05
 21.2127  1652.2
 21.2348  1641.95
 21.2569  1628.99
 21.279  1617.48
 21.3011  1611.11
 21.3232  1604.1
 21.3453  1597.61
 21.3674  1593.29
 21.3895  1589.1
 21.4116  1583.47
 21.4338  1577.75
 21.4559  1570.65
 21.478  1564.06
 21.5001  1556.9
 21.5222  1550.82
 21.5443  1545.98
 21.5664  1541.72
 21.5885  1538.27
 21.6106  1535.58
 21.6327  1533.31
 21.6548  1531.32
 21.6769  1527.87
 21.6991  1525.39
 21.7212  1523.88
 21.7433  1522.13
 21.7654  1520.33
 21.7875  1519.52
 21.8096  1517.41
 21.8317  1516.3
 21.8538  1515.73
 21.8759  1513.55
 21.898  1511.82
 21.9201  1511.69
 21.9422  1511.35
 21.9643  1509.68
 21.9865  1508.98
 22.0086  1507.99
 22.0307  1505.89
 22.0528  1504.2
 22.0749  1503.49
 22.097  1501.58
 22.1191  1500.2
 22.1412  1499.08
 22.1633  1497.33
 22.1854  1495.56
 22.2075  1493.88
 22.2296  1492.94
 22.2518  1490.97
 22.2739  1489.22
 22.296  1487.13
 22.3181  1486.44
 22.3402  1484.38
 22.3623  1482.7
 22.3844  1480.87
 22.4065  1478.32
 22.4286  1476.11
 22.4507  1475.48
 22.4728  1473.65
 22.4949  1472.55
 22.5171  1471.2
 22.5392  1469.18
 22.5613  1466.49
 22.5834  1465.64
 22.6055  1464
 22.6276  1462.3
 22.6497  1461.35
 22.6718  1459.65
 22.6939  1458.8
 22.716  1457.32
 22.7381  1456.12
 22.7602  1455.93
 22.7823  1454.15
 22.8045  1453.74
 22.8266  1453.23
 22.8487  1449.51
 22.8708  1449.12
 22.8929  1448.14
 22.915  1445.57
 22.9371  1444.23
 22.9592  1444.34
 22.9813  1441.09
 23.0034  1446.9
 23.0255  1468.25
 23.0476  1466.92
 23.0698  1445.99
 23.0919  1434.25
 23.114  1431.48
 23.1361  1404.84
 23.1582  1323.17
 23.1803  1246.32
 23.2024  1192.1
 23.2245  1159.9
 23.2466  1129.37
 23.2687  1095.7
 23.2908  1063.88
 23.3129  1055.41
 23.335  1039.11
 23.3572  1022.13
 23.3793  1003.89
 23.4014  988.478
 23.4235  970.844
 23.4456  955.551
 23.4677  941.772
 23.4898  928.557
 23.5119  918.482
 23.534  918.998
 23.5561  912.762
 23.5782  908.381
 23.6003  902.134
 23.6225  896.757
 23.6446  889.27
 23.6667  883.866
 23.6888  876.785
 23.7109  872.063
 23.733  866.22
 23.7551  862.362
 23.7772  859.154
 23.7993  858.02
 23.8214  856.814
 23.8435  855.488
 23.8656  855.992
 23.8877  855.117
 23.9099  855.305
 23.932  854.554
 23.9541  855.022
 23.9762  854.236
 23.9983  853.681
 24.0204  851.83
 24.0425  851.151
 24.0646  847.377
 24.0867  845.66
 24.1088  841.368
 24.1309  835.108
 24.153  829.69
 24.1752  820.318
 24.1973  811.494
 24.2194  803.07
 24.2415  791.622
 24.2636  781.251
 24.2857  770.751
 24.3078  758.815
 24.3299  746.107
 24.352  732.243
 24.3741  716.497
 24.3962  699.01
 24.4183  682.083
 24.4405  672.17
 24.4626  654.512
 24.4847  632.383
 24.5068  613.68
 24.5289  585.138
 24.551  564.211
 24.5731  527.086
 24.5952  492.797
 24.6173  451.163
 24.6394  423.242
 24.6615  390.658
 24.6836  347.816
 24.7057  293.324
 24.7279  223.631
 24.75  111.912
 24.7721  19.403
 24.7942  0.0302888
 24.8163  0.0000000E+00
 24.8384  0.0000000E+00
 24.8605  0.0000000E+00
 24.8826  0.0000000E+00
 24.9047  0.0000000E+00
 24.9268  0.0000000E+00
 24.9489  0.0000000E+00
 24.971  0.0000000E+00
 24.9932  0.0000000E+00
 25.0153  0.0000000E+00
 25.0374  0.0000000E+00
 25.0595  0.0000000E+00
 25.0816  0.0000000E+00
 25.1037  0.0000000E+00
 25.1258  0.0000000E+00
 25.1479  0.0000000E+00
 25.17  0.0000000E+00
 25.1921  0.0000000E+00
 25.2142  0.0000000E+00
 25.2363  0.0000000E+00
 25.2584  0.0000000E+00
 25.2806  0.0000000E+00
 25.3027  0.0000000E+00
 25.3248  0.0000000E+00
 25.3469  0.0000000E+00
 25.369  0.0000000E+00
 25.3911  0.0000000E+00
 25.4132  0.0000000E+00
 25.4353  0.0000000E+00
 25.4574  0.0000000E+00
 25.4795  0.0000000E+00
 25.5016  0.0000000E+00
 25.5237  0.0000000E+00
 25.5459  0.0000000E+00
 25.568  0.0000000E+00
 25.5901  0.0000000E+00
 25.6122  0.0000000E+00
 25.6343  0.0000000E+00
 25.6564  0.0000000E+00
 25.6785  0.0000000E+00
 25.7006  0.0000000E+00
 25.7227  0.0000000E+00
 25.7448  0.0000000E+00
 25.7669  0.0000000E+00
 25.789  0.0000000E+00
 25.8112  0.0000000E+00
 25.8333  0.0000000E+00
 25.8554  0.0000000E+00
 25.8775  0.0000000E+00
 25.8996  0.0000000E+00
 25.9217  0.0000000E+00
 25.9438  0.0000000E+00
 25.9659  0.0000000E+00
 25.988  0.0000000E+00
 26.0101  0.0000000E+00
 26.0322  0.0000000E+00
 26.0543  0.0000000E+00
 26.0764  0.0000000E+00
 26.0986  0.0000000E+00
 26.1207  0.0000000E+00
 26.1428  0.0000000E+00
 26.1649  0.0000000E+00
 26.187  0.0000000E+00
 26.2091  0.0000000E+00
 26.2312  0.0000000E+00
 26.2533  0.0000000E+00
 26.2754  0.0000000E+00
 26.2975  0.0000000E+00
 26.3196  0.0000000E+00
 26.3417  0.0000000E+00
 26.3639  0.0000000E+00
 26.386  0.0000000E+00
 26.4081  0.0000000E+00
 26.4302  0.0000000E+00
 26.4523  0.0000000E+00
 26.4744  0.0000000E+00
 26.4965  0.0000000E+00
 26.5186  0.0000000E+00
 26.5407  0.0000000E+00
 26.5628  0.0000000E+00
 26.5849  0.0000000E+00
 26.607  0.0000000E+00
 26.6291  0.0000000E+00
 26.6513  0.0000000E+00
 26.6734  0.0000000E+00
 26.6955  0.0000000E+00
 26.7176  0.0000000E+00
 26.7397  0.0000000E+00
 26.7618  0.0000000E+00
 26.7839  0.0000000E+00
 26.806  0.0000000E+00
 26.8281  0.0000000E+00
 26.8502  0.0000000E+00
 26.8723  0.0000000E+00
 26.8944  0.0000000E+00
 26.9166  0.0000000E+00
 26.9387  0.0000000E+00
 26.9608  0.0000000E+00
 26.9829  0.0000000E+00
 27.005  0.0000000E+00
 27.0271  0.0000000E+00
 27.0492  0.0000000E+00
 27.0713  0.0000000E+00
 27.0934  0.0000000E+00
 27.1155  0.0000000E+00
 27.1376  0.0000000E+00
 27.1597  0.0000000E+00
 27.1818  0.0000000E+00
 27.204  0.0000000E+00
 27.2261  0.0000000E+00
 27.2482  0.0000000E+00
 27.2703  0.0000000E+00
 27.2924  0.0000000E+00
 27.3145  0.0000000E+00
 27.3366  0.0000000E+00
 27.3587  0.0000000E+00
 27.3808  0.0000000E+00
 27.4029  0.0000000E+00
 27.425  0.0000000E+00
 27.4471  0.0000000E+00
 27.4693  0.0000000E+00
 27.4914  0.0000000E+00
 27.5135  0.0000000E+00
 27.5356  0.0000000E+00
 27.5577  0.0000000E+00
 27.5798  0.0000000E+00
 27.6019  0.0000000E+00
 27.624  0.0000000E+00
 27.6461  0.0000000E+00
 27.6682  0.0000000E+00
 27.6903  0.0000000E+00
 27.7124  0.0000000E+00
 27.7345  0.0000000E+00
 27.7567  0.0000000E+00
 27.7788  0.0000000E+00
 27.8009  0.0000000E+00
 27.823  0.0000000E+00
 27.8451  0.0000000E+00
 27.8672  0.0000000E+00
 27.8893  0.0000000E+00
 27.9114  0.0000000E+00
 27.9335  0.0000000E+00
 27.9556  0.0000000E+00
 27.9777  0.0000000E+00
 27.9998  0.0000000E+00
 28.022  0.0000000E+00
 28.0441  0.0000000E+00
 28.0662  0.0000000E+00
 28.0883  0.0000000E+00
 28.1104  0.0000000E+00
 28.1325  0.0000000E+00
 28.1546  0.0000000E+00
 28.1767  0.0000000E+00
 28.1988  0.0000000E+00
 28.2209  0.0000000E+00
 28.243  0.0000000E+00
 28.2651  0.0000000E+00
 28.2873  0.0000000E+00
 28.3094  0.0000000E+00
 28.3315  0.0000000E+00
 28.3536  0.0000000E+00
 28.3757  0.0000000E+00
 28.3978  0.0000000E+00
 28.4199  0.0000000E+00
 28.442  0.0000000E+00
 28.4641  0.0000000E+00
 28.4862  0.0000000E+00
 28.5083  0.0000000E+00
 28.5304  0.0000000E+00
 28.5525  0.0000000E+00
 28.5747  0.0000000E+00
 28.5968  0.0000000E+00
 28.6189  0.0000000E+00
 28.641  0.0000000E+00
 28.6631  0.0000000E+00
 28.6852  0.0000000E+00
 28.7073  0.0000000E+00
 28.7294  0.0000000E+00
 28.7515  0.0000000E+00
 28.7736  0.0000000E+00
 28.7957  0.0000000E+00
 28.8178  0.0000000E+00
 28.84  0.0000000E+00
 28.8621  0.0000000E+00
 28.8842  0.0000000E+00
 28.9063  0.0000000E+00
 28.9284  0.0000000E+00
 28.9505  0.0000000E+00
 28.9726  0.0000000E+00
 28.9947  0.0000000E+00
 29.0168  0.0000000E+00
 29.0389  0.0000000E+00
 29.061  0.0000000E+00
 29.0831  0.0000000E+00
 29.1052  0.0000000E+00
 29.1274  0.0000000E+00
 29.1495  0.0000000E+00
 29.1716  0.0000000E+00
 29.1937  0.0000000E+00
 29.2158  0.0000000E+00
 29.2379  0.0000000E+00
 29.26  0.0000000E+00
 29.2821  0.0000000E+00
 29.3042  0.0000000E+00
 29.3263  0.0000000E+00
 29.3484  0.0000000E+00
 29.3705  0.0000000E+00
 29.3927  0.0000000E+00
 29.4148  0.0000000E+00
 29.4369  0.0000000E+00
 29.459  0.0000000E+00
 29.4811  0.0000000E+00
 29.5032  0.0000000E+00
 29.5253  0.0000000E+00
 29.5474  0.0000000E+00
 29.5695  0.0000000E+00
 29.5916  0.0000000E+00
 29.6137  0.0000000E+00
 29.6358  0.0000000E+00
 29.658  0.0000000E+00
 29.6801  0.0000000E+00
 29.7022  0.0000000E+00
 29.7243  0.0000000E+00
 29.7464  0.0000000E+00
 29.7685  0.0000000E+00
 29.7906  0.0000000E+00
 29.8127  0.0000000E+00
 29.8348  0.0000000E+00
 29.8569  0.0000000E+00
 29.879  0.0000000E+00
 29.9011  0.0000000E+00
 29.9232  0.0000000E+00
 29.9454  0.0000000E+00
 29.9675  0.0000000E+00
 29.9896  0.0000000E+00
 30.0117  0.0000000E+00
 30.0338  0.0000000E+00
 30.0559  0.0000000E+00
 30.078  0.0000000E+00
 30.1001  0.0000000E+00
 30.1222  0.0000000E+00
 30.1443  0.0000000E+00
 30.1664  0.0000000E+00
 30.1885  0.0000000E+00
 30.2107  0.0000000E+00
 30.2328  0.0000000E+00
 30.2549  0.0000000E+00
 30.277  0.0000000E+00
 30.2991  0.0000000E+00
 30.3212  0.0000000E+00
 30.3433  0.0000000E+00
 30.3654  0.0000000E+00
 30.3875  0.0000000E+00
 30.4096  0.0000000E+00
 30.4317  0.0000000E+00
 30.4538  0.0000000E+00
 30.4759  0.0000000E+00
 30.4981  0.0000000E+00
 30.5202  0.0000000E+00
 30.5423  0.0000000E+00
 30.5644  0.0000000E+00
 30.5865  0.0000000E+00
 30.6086  0.0000000E+00
 30.6307  0.0000000E+00
 30.6528  0.0000000E+00
 30.6749  0.0000000E+00
 30.697  0.0000000E+00
 30.7191  0.0000000E+00
 30.7412  0.0000000E+00
 30.7634  0.0000000E+00
 30.7855  0.0000000E+00
 30.8076  0.0000000E+00
 30.8297  0.0000000E+00
 30.8518  0.0000000E+00
 30.8739  0.0000000E+00
 30.896  0.0000000E+00
 30.9181  0.0000000E+00
 30.9402  0.0000000E+00
 30.9623  0.0000000E+00
 30.9844  0.0000000E+00
 31.0065  0.0000000E+00
 31.0286  0.0000000E+00
 31.0508  0.0000000E+00
 31.0729  0.0000000E+00
 31.095  0.0000000E+00
 31.1171  0.0000000E+00
 31.1392  0.0000000E+00
 31.1613  0.0000000E+00
 31.1834  0.0000000E+00
 31.2055  0.0000000E+00
 31.2276  0.0000000E+00
 31.2497  0.0000000E+00
 31.2718  0.0000000E+00
 31.2939  0.0000000E+00
 31.3161  0.0000000E+00
 31.3382  0.0000000E+00
 31.3603  0.0000000E+00
 31.3824  0.0000000E+00
 31.4045  0.0000000E+00
 31.4266  0.0000000E+00
 31.4487  0.0000000E+00
 31.4708  0.0000000E+00
 31.4929  0.0000000E+00
 31.515  0.0000000E+00
 31.5371  0.0000000E+00
 31.5592  0.0000000E+00
 31.5814  0.0000000E+00
 31.6035  0.0000000E+00
 31.6256  0.0000000E+00
 31.6477  0.0000000E+00
 31.6698  0.0000000E+00
 31.6919  0.0000000E+00
 31.714  0.0000000E+00
 31.7361  0.0000000E+00
 31.7582  0.0000000E+00
 31.7803  0.0000000E+00
 31.8024  0.0000000E+00
 31.8245  0.0000000E+00
 31.8466  0.0000000E+00
 31.8688  0.0000000E+00
 31.8909  0.0000000E+00
 31.913  0.0000000E+00
 31.9351  0.0000000E+00
 31.9572  0.0000000E+00
 31.9793  0.0000000E+00
 32.0014  0.0000000E+00
 32.0235  0.0000000E+00
 32.0456  0.0000000E+00
 32.0677  0.0000000E+00
 32.0898  0.0000000E+00
 32.1119  0.0000000E+00
 32.1341  0.0000000E+00
 32.1562  0.0000000E+00
 32.1783  0.0000000E+00
 32.2004  0.0000000E+00
 32.2225  0.0000000E+00
 32.2446  0.0000000E+00
 32.2667  0.0000000E+00
 32.2888  0.0000000E+00
 32.3109  0.0000000E+00
 32.333  0.0000000E+00
 32.3551  0.0000000E+00
 32.3772  0.0000000E+00
 32.3993  0.0000000E+00
 32.4215  0.0000000E+00
 32.4436  0.0000000E+00
 32.4657  0.0000000E+00
 32.4878  0.0000000E+00
 32.5099  0.0000000E+00
 32.532  0.0000000E+00
 32.5541  0.0000000E+00
 32.5762  0.0000000E+00
 32.5983  0.0000000E+00
 32.6204  0.0000000E+00
 32.6425  0.0000000E+00
 32.6646  0.0000000E+00
 32.6868  0.0000000E+00
 32.7089  0.0000000E+00
 32.731  0.0000000E+00