File: BA_15.chi
D:\DATA\UserData\CuiTian20190403\CWH\BA\BA_15.tif: 2-theta Scan
2-Theta Angle (Degrees)
Intensity
       1481
 0.0110541  47.7355
 0.0331622  45.3907
 0.0552703  41.7483
 0.0773785  39.5487
 0.0994866  38.722
 0.121595  38.9076
 0.143703  39.3897
 0.165811  39.2732
 0.187919  39.2263
 0.210027  39.2596
 0.232135  38.6247
 0.254244  39.6577
 0.276352  39.3069
 0.29846  38.7494
 0.320568  39.1431
 0.342676  38.6391
 0.364784  38.573
 0.386892  39.4626
 0.409  40.9506
 0.431109  41.0174
 0.453217  39.9578
 0.475325  40.0441
 0.497433  40.2055
 0.519541  39.6644
 0.541649  39.4941
 0.563757  39.4455
 0.585866  39.4381
 0.607974  39.3178
 0.630082  39.2869
 0.65219  39.3949
 0.674298  39.0661
 0.696406  39.0134
 0.718514  39.3123
 0.740622  39.1771
 0.762731  38.8109
 0.784839  38.2774
 0.806947  38.6891
 0.829055  38.603
 0.851163  39.6021
 0.873271  40.5303
 0.895379  40.6928
 0.917488  40.1644
 0.939596  39.7799
 0.961704  39.9078
 0.983812  40.542
 1.00592  40.7859
 1.02803  40.2377
 1.05014  39.5005
 1.07224  39.0642
 1.09435  39.168
 1.11646  39.5114
 1.13857  39.9049
 1.16068  40.5531
 1.18279  40.7189
 1.20489  40.8389
 1.227  40.9567
 1.24911  41.0577
 1.27122  41.3425
 1.29333  41.3861
 1.31543  41.1438
 1.33754  41.3449
 1.35965  41.3983
 1.38176  41.607
 1.40387  41.5683
 1.42597  41.791
 1.44808  41.6498
 1.47019  41.8451
 1.4923  42.1316
 1.51441  42.1826
 1.53652  42.364
 1.55862  42.7666
 1.58073  43.0198
 1.60284  43.3821
 1.62495  43.5546
 1.64706  43.6716
 1.66916  43.982
 1.69127  44.4635
 1.71338  44.8597
 1.73549  44.9002
 1.7576  45.222
 1.7797  45.7751
 1.80181  46.2982
 1.82392  47.8228
 1.84603  49.9712
 1.86814  53.048
 1.89025  60.3861
 1.91235  76.4298
 1.93446  104.312
 1.95657  138.446
 1.97868  173.465
 2.00079  206.798
 2.02289  237.959
 2.045  269.08
 2.06711  300.909
 2.08922  338.391
 2.11133  380.188
 2.13343  425.803
 2.15554  475.846
 2.17765  526.31
 2.19976  567.138
 2.22187  600.964
 2.24398  630.272
 2.26608  655.312
 2.28819  680.768
 2.3103  703.237
 2.33241  724.421
 2.35452  747.751
 2.37662  772.955
 2.39873  796.57
 2.42084  819.314
 2.44295  839.436
 2.46506  857.001
 2.48717  878.396
 2.50927  896.572
 2.53138  915.536
 2.55349  934.428
 2.5756  950.808
 2.59771  967.894
 2.61981  986.542
 2.64192  1004.07
 2.66403  1019.5
 2.68614  1035.89
 2.70825  1048.54
 2.73035  1062.91
 2.75246  1078.3
 2.77457  1094.31
 2.79668  1108.75
 2.81879  1124.58
 2.8409  1141.74
 2.863  1151.94
 2.88511  1162.2
 2.90722  1176.27
 2.92933  1188.98
 2.95144  1200.38
 2.97354  1213.78
 2.99565  1228.36
 3.01776  1238.78
 3.03987  1247.2
 3.06198  1257.3
 3.08408  1266.67
 3.10619  1275.38
 3.1283  1282.2
 3.15041  1290.91
 3.17252  1300.91
 3.19463  1311.22
 3.21673  1321.68
 3.23884  1331.4
 3.26095  1337.83
 3.28306  1345.05
 3.30517  1355.34
 3.32727  1361.83
 3.34938  1369.43
 3.37149  1377
 3.3936  1382.07
 3.41571  1387.7
 3.43781  1395.7
 3.45992  1406
 3.48203  1411.49
 3.50414  1418.66
 3.52625  1426.37
 3.54836  1434.37
 3.57046  1444.1
 3.59257  1452.08
 3.61468  1457.22
 3.63679  1461.32
 3.6589  1466.62
 3.681  1471.44
 3.70311  1475.32
 3.72522  1479.21
 3.74733  1480.5
 3.76944  1484.54
 3.79154  1491.31
 3.81365  1496.74
 3.83576  1498.76
 3.85787  1502.62
 3.87998  1510.71
 3.90209  1513.84
 3.92419  1515.71
 3.9463  1521.55
 3.96841  1526.07
 3.99052  1528.94
 4.01263  1532.4
 4.03473  1535.53
 4.05684  1541.62
 4.07895  1544.1
 4.10106  1545.71
 4.12317  1548.67
 4.14528  1549.96
 4.16738  1549.69
 4.18949  1552.48
 4.2116  1557.67
 4.23371  1559.48
 4.25582  1558.3
 4.27792  1560.11
 4.30003  1562.54
 4.32214  1565.86
 4.34425  1569.46
 4.36636  1572.78
 4.38846  1575.44
 4.41057  1577.75
 4.43268  1578.88
 4.45479  1580.57
 4.4769  1582.6
 4.499  1583.85
 4.52111  1586.28
 4.54322  1587.79
 4.56533  1587.9
 4.58744  1585.61
 4.60955  1587.45
 4.63165  1589.44
 4.65376  1590.06
 4.67587  1590.16
 4.69798  1591.23
 4.72009  1591.62
 4.74219  1592.84
 4.7643  1593.48
 4.78641  1591.22
 4.80852  1590.57
 4.83063  1592.45
 4.85274  1592.44
 4.87484  1592.49
 4.89695  1592.64
 4.91906  1594.36
 4.94117  1595.79
 4.96328  1596.91
 4.98538  1597.81
 5.00749  1598.07
 5.0296  1599.54
 5.05171  1599.82
 5.07382  1599.89
 5.09592  1598.07
 5.11803  1596.89
 5.14014  1597.04
 5.16225  1597.6
 5.18436  1598.03
 5.20647  1598.91
 5.22857  1598.56
 5.25068  1596.12
 5.27279  1595.31
 5.2949  1594.68
 5.31701  1594.59
 5.33911  1596.53
 5.36122  1597.15
 5.38333  1594.49
 5.40544  1594.25
 5.42755  1594.75
 5.44965  1593.23
 5.47176  1591.71
 5.49387  1591.67
 5.51598  1590.83
 5.53809  1614.67
 5.5602  1687.78
 5.5823  1685.02
 5.60441  1612.46
 5.62652  1594.03
 5.64863  1591.55
 5.67074  1587.28
 5.69284  1587.33
 5.71495  1587.93
 5.73706  1588.89
 5.75917  1588.96
 5.78128  1587.66
 5.80338  1585.11
 5.82549  1584.36
 5.8476  1584.92
 5.86971  1584.13
 5.89182  1583.55
 5.91393  1584.24
 5.93603  1584.2
 5.95814  1584.37
 5.98025  1584.39
 6.00236  1583.98
 6.02447  1583.14
 6.04657  1582.25
 6.06868  1582.37
 6.09079  1580.56
 6.1129  1579.22
 6.13501  1579.42
 6.15712  1578.7
 6.17922  1579.26
 6.20133  1578.42
 6.22344  1576.8
 6.24555  1577.64
 6.26766  1577.67
 6.28976  1578.19
 6.31187  1576.87
 6.33398  1575.31
 6.35609  1575.69
 6.3782  1574.37
 6.4003  1572.73
 6.42241  1570.87
 6.44452  1570.21
 6.46663  1570.32
 6.48874  1569.58
 6.51085  1568.39
 6.53295  1567.02
 6.55506  1567.08
 6.57717  1567.95
 6.59928  1568.04
 6.62139  1566.53
 6.64349  1562.4
 6.6656  1561.84
 6.68771  1562.79
 6.70982  1562.49
 6.73193  1563.1
 6.75403  1563.38
 6.77614  1562.93
 6.79825  1561.39
 6.82036  1560.1
 6.84247  1559.08
 6.86458  1558.61
 6.88668  1558.58
 6.90879  1557
 6.9309  1556.59
 6.95301  1558.58
 6.97512  1558.39
 6.99722  1556.51
 7.01933  1556.63
 7.04144  1557.32
 7.06355  1556.94
 7.08566  1555.01
 7.10776  1553.25
 7.12987  1552.1
 7.15198  1551.84
 7.17409  1551.92
 7.1962  1551.79
 7.21831  1551.35
 7.24041  1549.98
 7.26252  1549.4
 7.28463  1549.04
 7.30674  1548.03
 7.32885  1548.12
 7.35095  1546.97
 7.37306  1545.36
 7.39517  1544.24
 7.41728  1542.97
 7.43939  1542.01
 7.46149  1541.3
 7.4836  1542.56
 7.50571  1543.39
 7.52782  1542.94
 7.54993  1541.95
 7.57204  1541.79
 7.59414  1542.06
 7.61625  1541.95
 7.63836  1541.01
 7.66047  1540.24
 7.68258  1538.42
 7.70468  1536.93
 7.72679  1537.58
 7.7489  1536.41
 7.77101  1535.69
 7.79312  1537.95
 7.81523  1537.65
 7.83733  1538.25
 7.85944  1538.46
 7.88155  1537.6
 7.90366  1537.57
 7.92577  1536.81
 7.94787  1535.28
 7.96998  1533.43
 7.99209  1533.19
 8.0142  1533.96
 8.03631  1534.86
 8.05841  1534.15
 8.08052  1533.3
 8.10263  1534.58
 8.12474  1536.26
 8.14685  1536.89
 8.16895  1536.44
 8.19106  1536.89
 8.21317  1540.32
 8.23528  1541.53
 8.25739  1544.26
 8.2795  1548.12
 8.3016  1553.02
 8.32371  1559.45
 8.34582  1563.54
 8.36793  1563.11
 8.39004  1560.05
 8.41214  1554.12
 8.43425  1547.3
 8.45636  1543.27
 8.47847  1539.98
 8.50058  1537.95
 8.52269  1537.42
 8.54479  1537.17
 8.5669  1537.87
 8.58901  1538.28
 8.61112  1536.33
 8.63323  1535.37
 8.65533  1538.69
 8.67744  1540.73
 8.69955  1540.95
 8.72166  1543.67
 8.74377  1545.84
 8.76587  1547.62
 8.78798  1551.9
 8.81009  1556.29
 8.8322  1562.55
 8.85431  1565.81
 8.87642  1562.05
 8.89852  1556.43
 8.92063  1549.72
 8.94274  1543.68
 8.96485  1540.69
 8.98696  1536.69
 9.00906  1533.32
 9.03117  1531.83
 9.05328  1532.37
 9.07539  1533.41
 9.0975  1532.01
 9.11961  1531.27
 9.14171  1531.94
 9.16382  1532.35
 9.18593  1532.12
 9.20804  1531.47
 9.23015  1532.34
 9.25225  1531.97
 9.27436  1533.41
 9.29647  1535.04
 9.31858  1534.26
 9.34069  1534.64
 9.36279  1534.26
 9.3849  1534.85
 9.40701  1536.74
 9.42912  1538.25
 9.45123  1538.95
 9.47334  1538.67
 9.49544  1539.35
 9.51755  1540.76
 9.53966  1544.34
 9.56177  1548.41
 9.58388  1551.51
 9.60598  1554.61
 9.62809  1557.75
 9.6502  1558.49
 9.67231  1555.78
 9.69442  1554.2
 9.71652  1552.89
 9.73863  1554.04
 9.76074  1554.22
 9.78285  1552.06
 9.80496  1551.41
 9.82707  1551.42
 9.84917  1554.16
 9.87128  1559.68
 9.89339  1564.55
 9.9155  1569.4
 9.93761  1572.81
 9.95971  1571.17
 9.98182  1566.39
 10.0039  1563.79
 10.026  1562.41
 10.0481  1560.65
 10.0703  1559.62
 10.0924  1559.73
 10.1145  1559.25
 10.1366  1558.36
 10.1587  1560.47
 10.1808  1562.92
 10.2029  1564.26
 10.225  1566.24
 10.2471  1567.67
 10.2692  1570.59
 10.2913  1575.07
 10.3134  1579.94
 10.3356  1583.45
 10.3577  1588.56
 10.3798  1596.47
 10.4019  1605.97
 10.424  1615.69
 10.4461  1628.09
 10.4682  1647.81
 10.4903  1671.43
 10.5124  1701.42
 10.5345  1736.82
 10.5566  1773.85
 10.5787  1803.78
 10.6008  1823.82
 10.623  1838.02
 10.6451  1851.61
 10.6672  1868.49
 10.6893  1880.9
 10.7114  1879.58
 10.7335  1868.03
 10.7556  1853.03
 10.7777  1834.27
 10.7998  1805.24
 10.8219  1769.69
 10.844  1731.8
 10.8661  1697.92
 10.8883  1671.14
 10.9104  1651.03
 10.9325  1637.18
 10.9546  1628.36
 10.9767  1621.87
 10.9988  1616.05
 11.0209  1611.86
 11.043  1610.09
 11.0651  1609.23
 11.0872  1608.82
 11.1093  1608.48
 11.1314  1610.02
 11.1536  1613.04
 11.1757  1612.98
 11.1978  1612.46
 11.2199  1612.02
 11.242  1611.96
 11.2641  1614.08
 11.2862  1616.88
 11.3083  1617.54
 11.3304  1617.17
 11.3525  1616.58
 11.3746  1618.83
 11.3967  1621.55
 11.4189  1625.84
 11.441  1633.2
 11.4631  1642.33
 11.4852  1653.29
 11.5073  1662.12
 11.5294  1667.38
 11.5515  1670
 11.5736  1666.54
 11.5957  1660.14
 11.6178  1651.69
 11.6399  1643.33
 11.662  1638.19
 11.6841  1637.28
 11.7063  1636.43
 11.7284  1635.66
 11.7505  1634.94
 11.7726  1633.6
 11.7947  1632.56
 11.8168  1630.11
 11.8389  1625.93
 11.861  1620.3
 11.8831  1616.74
 11.9052  1616.01
 11.9273  1614.74
 11.9494  1614.11
 11.9716  1614.78
 11.9937  1615.43
 12.0158  1616.42
 12.0379  1618.03
 12.06  1620.85
 12.0821  1625.56
 12.1042  1632.72
 12.1263  1639.35
 12.1484  1648.44
 12.1705  1660.87
 12.1926  1677.37
 12.2147  1693.66
 12.2369  1708.9
 12.259  1725.16
 12.2811  1742.91
 12.3032  1759.53
 12.3253  1771.15
 12.3474  1777.78
 12.3695  1778.15
 12.3916  1771.55
 12.4137  1755.49
 12.4358  1732.85
 12.4579  1706.73
 12.48  1681.69
 12.5021  1659.33
 12.5243  1643.6
 12.5464  1634.64
 12.5685  1627.58
 12.5906  1621.18
 12.6127  1617.26
 12.6348  1614.05
 12.6569  1612.19
 12.679  1610.91
 12.7011  1609.92
 12.7232  1609.52
 12.7453  1609.7
 12.7674  1607.69
 12.7896  1605.55
 12.8117  1604.4
 12.8338  1603.19
 12.8559  1601.87
 12.878  1601.28
 12.9001  1599.48
 12.9222  1598.11
 12.9443  1596.9
 12.9664  1597.44
 12.9885  1597.49
 13.0106  1596.88
 13.0327  1595.4
 13.0549  1594.55
 13.077  1594.58
 13.0991  1593.82
 13.1212  1593.45
 13.1433  1593.54
 13.1654  1593.73
 13.1875  1592.22
 13.2096  1592.33
 13.2317  1593.49
 13.2538  1594.81
 13.2759  1595.79
 13.298  1595.48
 13.3201  1595.15
 13.3423  1595.4
 13.3644  1595.29
 13.3865  1596.31
 13.4086  1598.12
 13.4307  1599.34
 13.4528  1599.8
 13.4749  1600.17
 13.497  1600.42
 13.5191  1600.87
 13.5412  1600.31
 13.5633  1599.68
 13.5854  1599.66
 13.6076  1600.59
 13.6297  1601.99
 13.6518  1604.39
 13.6739  1604.6
 13.696  1606.01
 13.7181  1608.51
 13.7402  1610.57
 13.7623  1613.07
 13.7844  1615.03
 13.8065  1615.43
 13.8286  1615.45
 13.8507  1613.43
 13.8729  1612.16
 13.895  1612.13
 13.9171  1611.7
 13.9392  1610.21
 13.9613  1609.16
 13.9834  1608.07
 14.0055  1608.38
 14.0276  1610.02
 14.0497  1612.51
 14.0718  1612.72
 14.0939  1612.23
 14.116  1610.8
 14.1382  1610.46
 14.1603  1611.59
 14.1824  1612.34
 14.2045  1612.32
 14.2266  1611.88
 14.2487  1613.42
 14.2708  1613.34
 14.2929  1613.71
 14.315  1613.3
 14.3371  1614.23
 14.3592  1615.32
 14.3813  1615.08
 14.4034  1616.49
 14.4256  1616.68
 14.4477  1616.81
 14.4698  1617.79
 14.4919  1619.43
 14.514  1620.33
 14.5361  1620.2
 14.5582  1619.25
 14.5803  1619.52
 14.6024  1621.27
 14.6245  1622.12
 14.6466  1622.68
 14.6687  1623.1
 14.6909  1623.44
 14.713  1624.5
 14.7351  1625.53
 14.7572  1625.46
 14.7793  1624.65
 14.8014  1624.3
 14.8235  1624.4
 14.8456  1624.69
 14.8677  1625.62
 14.8898  1626.62
 14.9119  1627.54
 14.934  1628.37
 14.9562  1629.14
 14.9783  1630.52
 15.0004  1631.91
 15.0225  1633.8
 15.0446  1636.01
 15.0667  1637.16
 15.0888  1639.5
 15.1109  1640.89
 15.133  1641.92
 15.1551  1644.15
 15.1772  1647.01
 15.1993  1647.47
 15.2215  1647.11
 15.2436  1645.26
 15.2657  1643.4
 15.2878  1643.29
 15.3099  1643.09
 15.332  1643.08
 15.3541  1643.6
 15.3762  1645.55
 15.3983  1646.77
 15.4204  1647.11
 15.4425  1646.22
 15.4646  1646.23
 15.4867  1647.06
 15.5089  1647.35
 15.531  1645.35
 15.5531  1645.42
 15.5752  1646.97
 15.5973  1646.13
 15.6194  1646.05
 15.6415  1646.25
 15.6636  1646.88
 15.6857  1647.49
 15.7078  1647.02
 15.7299  1647.88
 15.752  1648.04
 15.7742  1648.92
 15.7963  1650.39
 15.8184  1651.89
 15.8405  1652.55
 15.8626  1654.87
 15.8847  1655.44
 15.9068  1655.02
 15.9289  1654.98
 15.951  1653.61
 15.9731  1651.95
 15.9952  1651.32
 16.0173  1651.88
 16.0394  1652.3
 16.0616  1652.36
 16.0837  1652.34
 16.1058  1651.77
 16.1279  1650.45
 16.15  1648.81
 16.1721  1649.18
 16.1942  1650.21
 16.2163  1650.61
 16.2384  1649.09
 16.2605  1647.93
 16.2826  1647.36
 16.3047  1647
 16.3269  1646.65
 16.349  1647.34
 16.3711  1647.41
 16.3932  1646.36
 16.4153  1646
 16.4374  1646.4
 16.4595  1646.78
 16.4816  1646.49
 16.5037  1647.04
 16.5258  1646.76
 16.5479  1646.21
 16.57  1645.59
 16.5922  1645.54
 16.6143  1646.65
 16.6364  1648.87
 16.6585  1651.03
 16.6806  1651.58
 16.7027  1650.38
 16.7248  1652.58
 16.7469  1654.88
 16.769  1656.87
 16.7911  1662.53
 16.8132  1670.28
 16.8353  1680.3
 16.8575  1692.25
 16.8796  1702.06
 16.9017  1710.33
 16.9238  1713.16
 16.9459  1710.35
 16.968  1704.66
 16.9901  1695.28
 17.0122  1685.22
 17.0343  1677.98
 17.0564  1671.73
 17.0785  1665.73
 17.1006  1660.5
 17.1227  1656.62
 17.1449  1654.65
 17.167  1653.52
 17.1891  1653.72
 17.2112  1655.21
 17.2333  1658.73
 17.2554  1663.88
 17.2775  1670.19
 17.2996  1677.15
 17.3217  1684.84
 17.3438  1693.33
 17.3659  1703.75
 17.388  1715.28
 17.4102  1724.71
 17.4323  1732.59
 17.4544  1736.05
 17.4765  1733.1
 17.4986  1723.93
 17.5207  1710.95
 17.5428  1698.97
 17.5649  1687.09
 17.587  1675.78
 17.6091  1666.46
 17.6312  1658.67
 17.6533  1653.13
 17.6755  1649.19
 17.6976  1646.18
 17.7197  1643.57
 17.7418  1642.38
 17.7639  1640.44
 17.786  1638.17
 17.8081  1635.58
 17.8302  1632.69
 17.8523  1628.61
 17.8744  1625.88
 17.8965  1622.03
 17.9186  1617.73
 17.9408  1614.03
 17.9629  1611.35
 17.985  1609.19
 18.0071  1608.12
 18.0292  1607.72
 18.0513  1605.13
 18.0734  1602.99
 18.0955  1601.35
 18.1176  1600.25
 18.1397  1598.72
 18.1618  1596.73
 18.1839  1594.12
 18.206  1591.28
 18.2282  1588.6
 18.2503  1586.59
 18.2724  1584.84
 18.2945  1582.53
 18.3166  1580.29
 18.3387  1578.27
 18.3608  1576.75
 18.3829  1575.27
 18.405  1572.56
 18.4271  1571.15
 18.4492  1570.91
 18.4713  1569.38
 18.4935  1566.72
 18.5156  1565.03
 18.5377  1564.41
 18.5598  1564.35
 18.5819  1562.79
 18.604  1560.95
 18.6261  1559.31
 18.6482  1557.23
 18.6703  1555.84
 18.6924  1555.3
 18.7145  1555.57
 18.7366  1556.4
 18.7588  1556.19
 18.7809  1553.81
 18.803  1551.42
 18.8251  1549.29
 18.8472  1548.84
 18.8693  1546.95
 18.8914  1544.5
 18.9135  1542.65
 18.9356  1539.93
 18.9577  1536.84
 18.9798  1533.42
 19.0019  1531.59
 19.024  1529.97
 19.0462  1528
 19.0683  1527.1
 19.0904  1524.58
 19.1125  1522.23
 19.1346  1519.26
 19.1567  1516.67
 19.1788  1515.38
 19.2009  1513.4
 19.223  1512.2
 19.2451  1509.37
 19.2672  1507.25
 19.2893  1506.98
 19.3115  1506.44
 19.3336  1505.93
 19.3557  1503.8
 19.3778  1502.06
 19.3999  1501.54
 19.422  1500.85
 19.4441  1500.41
 19.4662  1499.84
 19.4883  1498.61
 19.5104  1496.58
 19.5325  1493.78
 19.5546  1492.13
 19.5768  1491.34
 19.5989  1490.75
 19.621  1489.13
 19.6431  1487.58
 19.6652  1485.94
 19.6873  1484.77
 19.7094  1484.71
 19.7315  1482.95
 19.7536  1481.8
 19.7757  1481.58
 19.7978  1480.82
 19.8199  1478.88
 19.842  1477.78
 19.8642  1476.02
 19.8863  1474.18
 19.9084  1472.62
 19.9305  1471.18
 19.9526  1469.64
 19.9747  1467.96
 19.9968  1467.9
 20.0189  1468.19
 20.041  1467.17
 20.0631  1466.16
 20.0852  1465.78
 20.1073  1465.39
 20.1295  1466.02
 20.1516  1466.74
 20.1737  1467.34
 20.1958  1469.54
 20.2179  1471.67
 20.24  1473.3
 20.2621  1476.4
 20.2842  1481.31
 20.3063  1486.58
 20.3284  1490.39
 20.3505  1495.47
 20.3726  1500.2
 20.3948  1503.56
 20.4169  1506.09
 20.439  1507.83
 20.4611  1507.5
 20.4832  1505.59
 20.5053  1503.15
 20.5274  1499.09
 20.5495  1495.1
 20.5716  1490.28
 20.5937  1485.45
 20.6158  1481.29
 20.6379  1477.03
 20.66  1473.37
 20.6822  1469.25
 20.7043  1464.63
 20.7264  1460.79
 20.7485  1456.03
 20.7706  1451.81
 20.7927  1447.68
 20.8148  1442.13
 20.8369  1438.71
 20.859  1435.75
 20.8811  1431.24
 20.9032  1428.29
 20.9253  1425.17
 20.9475  1421.69
 20.9696  1417.41
 20.9917  1415.79
 21.0138  1413.36
 21.0359  1410.51
 21.058  1408.93
 21.0801  1408.32
 21.1022  1406.63
 21.1243  1405.83
 21.1464  1406.46
 21.1685  1406.44
 21.1906  1404.41
 21.2128  1403.66
 21.2349  1403.87
 21.257  1402.52
 21.2791  1401.79
 21.3012  1402.88
 21.3233  1401.13
 21.3454  1398.69
 21.3675  1396.62
 21.3896  1395.58
 21.4117  1393.04
 21.4338  1391.04
 21.4559  1390.16
 21.478  1388.26
 21.5002  1386.12
 21.5223  1384.69
 21.5444  1383.89
 21.5665  1382.4
 21.5886  1380.4
 21.6107  1378.72
 21.6328  1376.68
 21.6549  1375.19
 21.677  1372.28
 21.6991  1370.97
 21.7212  1369.4
 21.7433  1366.3
 21.7655  1363.6
 21.7876  1362.4
 21.8097  1358.82
 21.8318  1355.5
 21.8539  1354.02
 21.876  1352.45
 21.8981  1350.44
 21.9202  1350.07
 21.9423  1348.76
 21.9644  1346.46
 21.9865  1344.46
 22.0086  1343.68
 22.0308  1343.45
 22.0529  1341.79
 22.075  1340.4
 22.0971  1339.39
 22.1192  1338.99
 22.1413  1338.33
 22.1634  1336.94
 22.1855  1335.07
 22.2076  1333.78
 22.2297  1333.07
 22.2518  1331.25
 22.2739  1329.31
 22.2961  1328.69
 22.3182  1328.52
 22.3403  1326.32
 22.3624  1325.27
 22.3845  1324.57
 22.4066  1323.24
 22.4287  1321.35
 22.4508  1320.51
 22.4729  1318.79
 22.495  1317.35
 22.5171  1316.01
 22.5392  1315.28
 22.5614  1313.94
 22.5835  1312.98
 22.6056  1311.22
 22.6277  1308.33
 22.6498  1307.5
 22.6719  1306.58
 22.694  1305.82
 22.7161  1305.9
 22.7382  1305.76
 22.7603  1304.36
 22.7824  1301.62
 22.8045  1300.26
 22.8266  1299.77
 22.8488  1297.81
 22.8709  1297.18
 22.893  1295.92
 22.9151  1294.87
 22.9372  1293.31
 22.9593  1293.56
 22.9814  1290.94
 23.0035  1290.25
 23.0256  1288.6
 23.0477  1287.44
 23.0698  1286.75
 23.0919  1285.65
 23.1141  1283.33
 23.1362  1260.52
 23.1583  1188.04
 23.1804  1119.54
 23.2025  1071.89
 23.2246  1043.28
 23.2467  1015.86
 23.2688  985.029
 23.2909  955.975
 23.313  948.633
 23.3351  933.862
 23.3572  918.303
 23.3794  901.826
 23.4015  887.953
 23.4236  872.167
 23.4457  858.387
 23.4678  845.679
 23.4899  833.212
 23.512  823.602
 23.5341  824.638
 23.5562  819.629
 23.5783  814.612
 23.6004  808.167
 23.6225  803.166
 23.6446  796.49
 23.6668  792.032
 23.6889  786.183
 23.711  782.054
 23.7331  777.109
 23.7552  774.071
 23.7773  770.884
 23.7994  769.755
 23.8215  768.147
 23.8436  766.321
 23.8657  766.447
 23.8878  765.292
 23.9099  766.05
 23.9321  765.51
 23.9542  765.914
 23.9763  765.785
 23.9984  765.97
 24.0205  764.779
 24.0426  764.174
 24.0647  760.356
 24.0868  758.559
 24.1089  755.013
 24.131  749.816
 24.1531  743.924
 24.1752  735.112
 24.1974  726.467
 24.2195  717.93
 24.2416  707.362
 24.2637  697.699
 24.2858  688.056
 24.3079  676.72
 24.33  665.054
 24.3521  652.713
 24.3742  639.427
 24.3963  625.024
 24.4184  609.857
 24.4405  600.962
 24.4626  585.541
 24.4848  566.18
 24.5069  549.827
 24.529  525.486
 24.5511  506.646
 24.5732  472.786
 24.5953  442.401
 24.6174  405.941
 24.6395  381.249
 24.6616  351.962
 24.6837  313.118
 24.7058  263.591
 24.7279  201.202
 24.7501  101.031
 24.7722  17.5735
 24.7943  0.0277518
 24.8164  0.0000000E+00
 24.8385  0.0000000E+00
 24.8606  0.0000000E+00
 24.8827  0.0000000E+00
 24.9048  0.0000000E+00
 24.9269  0.0000000E+00
 24.949  0.0000000E+00
 24.9711  0.0000000E+00
 24.9932  0.0000000E+00
 25.0154  0.0000000E+00
 25.0375  0.0000000E+00
 25.0596  0.0000000E+00
 25.0817  0.0000000E+00
 25.1038  0.0000000E+00
 25.1259  0.0000000E+00
 25.148  0.0000000E+00
 25.1701  0.0000000E+00
 25.1922  0.0000000E+00
 25.2143  0.0000000E+00
 25.2364  0.0000000E+00
 25.2585  0.0000000E+00
 25.2806  0.0000000E+00
 25.3028  0.0000000E+00
 25.3249  0.0000000E+00
 25.347  0.0000000E+00
 25.3691  0.0000000E+00
 25.3912  0.0000000E+00
 25.4133  0.0000000E+00
 25.4354  0.0000000E+00
 25.4575  0.0000000E+00
 25.4796  0.0000000E+00
 25.5017  0.0000000E+00
 25.5238  0.0000000E+00
 25.5459  0.0000000E+00
 25.5681  0.0000000E+00
 25.5902  0.0000000E+00
 25.6123  0.0000000E+00
 25.6344  0.0000000E+00
 25.6565  0.0000000E+00
 25.6786  0.0000000E+00
 25.7007  0.0000000E+00
 25.7228  0.0000000E+00
 25.7449  0.0000000E+00
 25.767  0.0000000E+00
 25.7891  0.0000000E+00
 25.8112  0.0000000E+00
 25.8334  0.0000000E+00
 25.8555  0.0000000E+00
 25.8776  0.0000000E+00
 25.8997  0.0000000E+00
 25.9218  0.0000000E+00
 25.9439  0.0000000E+00
 25.966  0.0000000E+00
 25.9881  0.0000000E+00
 26.0102  0.0000000E+00
 26.0323  0.0000000E+00
 26.0544  0.0000000E+00
 26.0765  0.0000000E+00
 26.0986  0.0000000E+00
 26.1208  0.0000000E+00
 26.1429  0.0000000E+00
 26.165  0.0000000E+00
 26.1871  0.0000000E+00
 26.2092  0.0000000E+00
 26.2313  0.0000000E+00
 26.2534  0.0000000E+00
 26.2755  0.0000000E+00
 26.2976  0.0000000E+00
 26.3197  0.0000000E+00
 26.3418  0.0000000E+00
 26.3639  0.0000000E+00
 26.3861  0.0000000E+00
 26.4082  0.0000000E+00
 26.4303  0.0000000E+00
 26.4524  0.0000000E+00
 26.4745  0.0000000E+00
 26.4966  0.0000000E+00
 26.5187  0.0000000E+00
 26.5408  0.0000000E+00
 26.5629  0.0000000E+00
 26.585  0.0000000E+00
 26.6071  0.0000000E+00
 26.6292  0.0000000E+00
 26.6514  0.0000000E+00
 26.6735  0.0000000E+00
 26.6956  0.0000000E+00
 26.7177  0.0000000E+00
 26.7398  0.0000000E+00
 26.7619  0.0000000E+00
 26.784  0.0000000E+00
 26.8061  0.0000000E+00
 26.8282  0.0000000E+00
 26.8503  0.0000000E+00
 26.8724  0.0000000E+00
 26.8945  0.0000000E+00
 26.9167  0.0000000E+00
 26.9388  0.0000000E+00
 26.9609  0.0000000E+00
 26.983  0.0000000E+00
 27.0051  0.0000000E+00
 27.0272  0.0000000E+00
 27.0493  0.0000000E+00
 27.0714  0.0000000E+00
 27.0935  0.0000000E+00
 27.1156  0.0000000E+00
 27.1377  0.0000000E+00
 27.1598  0.0000000E+00
 27.182  0.0000000E+00
 27.2041  0.0000000E+00
 27.2262  0.0000000E+00
 27.2483  0.0000000E+00
 27.2704  0.0000000E+00
 27.2925  0.0000000E+00
 27.3146  0.0000000E+00
 27.3367  0.0000000E+00
 27.3588  0.0000000E+00
 27.3809  0.0000000E+00
 27.403  0.0000000E+00
 27.4251  0.0000000E+00
 27.4472  0.0000000E+00
 27.4694  0.0000000E+00
 27.4915  0.0000000E+00
 27.5136  0.0000000E+00
 27.5357  0.0000000E+00
 27.5578  0.0000000E+00
 27.5799  0.0000000E+00
 27.602  0.0000000E+00
 27.6241  0.0000000E+00
 27.6462  0.0000000E+00
 27.6683  0.0000000E+00
 27.6904  0.0000000E+00
 27.7125  0.0000000E+00
 27.7347  0.0000000E+00
 27.7568  0.0000000E+00
 27.7789  0.0000000E+00
 27.801  0.0000000E+00
 27.8231  0.0000000E+00
 27.8452  0.0000000E+00
 27.8673  0.0000000E+00
 27.8894  0.0000000E+00
 27.9115  0.0000000E+00
 27.9336  0.0000000E+00
 27.9557  0.0000000E+00
 27.9778  0.0000000E+00
 27.9999  0.0000000E+00
 28.0221  0.0000000E+00
 28.0442  0.0000000E+00
 28.0663  0.0000000E+00
 28.0884  0.0000000E+00
 28.1105  0.0000000E+00
 28.1326  0.0000000E+00
 28.1547  0.0000000E+00
 28.1768  0.0000000E+00
 28.1989  0.0000000E+00
 28.221  0.0000000E+00
 28.2431  0.0000000E+00
 28.2652  0.0000000E+00
 28.2874  0.0000000E+00
 28.3095  0.0000000E+00
 28.3316  0.0000000E+00
 28.3537  0.0000000E+00
 28.3758  0.0000000E+00
 28.3979  0.0000000E+00
 28.42  0.0000000E+00
 28.4421  0.0000000E+00
 28.4642  0.0000000E+00
 28.4863  0.0000000E+00
 28.5084  0.0000000E+00
 28.5305  0.0000000E+00
 28.5527  0.0000000E+00
 28.5748  0.0000000E+00
 28.5969  0.0000000E+00
 28.619  0.0000000E+00
 28.6411  0.0000000E+00
 28.6632  0.0000000E+00
 28.6853  0.0000000E+00
 28.7074  0.0000000E+00
 28.7295  0.0000000E+00
 28.7516  0.0000000E+00
 28.7737  0.0000000E+00
 28.7958  0.0000000E+00
 28.818  0.0000000E+00
 28.8401  0.0000000E+00
 28.8622  0.0000000E+00
 28.8843  0.0000000E+00
 28.9064  0.0000000E+00
 28.9285  0.0000000E+00
 28.9506  0.0000000E+00
 28.9727  0.0000000E+00
 28.9948  0.0000000E+00
 29.0169  0.0000000E+00
 29.039  0.0000000E+00
 29.0611  0.0000000E+00
 29.0832  0.0000000E+00
 29.1054  0.0000000E+00
 29.1275  0.0000000E+00
 29.1496  0.0000000E+00
 29.1717  0.0000000E+00
 29.1938  0.0000000E+00
 29.2159  0.0000000E+00
 29.238  0.0000000E+00
 29.2601  0.0000000E+00
 29.2822  0.0000000E+00
 29.3043  0.0000000E+00
 29.3264  0.0000000E+00
 29.3485  0.0000000E+00
 29.3707  0.0000000E+00
 29.3928  0.0000000E+00
 29.4149  0.0000000E+00
 29.437  0.0000000E+00
 29.4591  0.0000000E+00
 29.4812  0.0000000E+00
 29.5033  0.0000000E+00
 29.5254  0.0000000E+00
 29.5475  0.0000000E+00
 29.5696  0.0000000E+00
 29.5917  0.0000000E+00
 29.6138  0.0000000E+00
 29.636  0.0000000E+00
 29.6581  0.0000000E+00
 29.6802  0.0000000E+00
 29.7023  0.0000000E+00
 29.7244  0.0000000E+00
 29.7465  0.0000000E+00
 29.7686  0.0000000E+00
 29.7907  0.0000000E+00
 29.8128  0.0000000E+00
 29.8349  0.0000000E+00
 29.857  0.0000000E+00
 29.8791  0.0000000E+00
 29.9012  0.0000000E+00
 29.9234  0.0000000E+00
 29.9455  0.0000000E+00
 29.9676  0.0000000E+00
 29.9897  0.0000000E+00
 30.0118  0.0000000E+00
 30.0339  0.0000000E+00
 30.056  0.0000000E+00
 30.0781  0.0000000E+00
 30.1002  0.0000000E+00
 30.1223  0.0000000E+00
 30.1444  0.0000000E+00
 30.1665  0.0000000E+00
 30.1887  0.0000000E+00
 30.2108  0.0000000E+00
 30.2329  0.0000000E+00
 30.255  0.0000000E+00
 30.2771  0.0000000E+00
 30.2992  0.0000000E+00
 30.3213  0.0000000E+00
 30.3434  0.0000000E+00
 30.3655  0.0000000E+00
 30.3876  0.0000000E+00
 30.4097  0.0000000E+00
 30.4318  0.0000000E+00
 30.454  0.0000000E+00
 30.4761  0.0000000E+00
 30.4982  0.0000000E+00
 30.5203  0.0000000E+00
 30.5424  0.0000000E+00
 30.5645  0.0000000E+00
 30.5866  0.0000000E+00
 30.6087  0.0000000E+00
 30.6308  0.0000000E+00
 30.6529  0.0000000E+00
 30.675  0.0000000E+00
 30.6971  0.0000000E+00
 30.7192  0.0000000E+00
 30.7414  0.0000000E+00
 30.7635  0.0000000E+00
 30.7856  0.0000000E+00
 30.8077  0.0000000E+00
 30.8298  0.0000000E+00
 30.8519  0.0000000E+00
 30.874  0.0000000E+00
 30.8961  0.0000000E+00
 30.9182  0.0000000E+00
 30.9403  0.0000000E+00
 30.9624  0.0000000E+00
 30.9845  0.0000000E+00
 31.0067  0.0000000E+00
 31.0288  0.0000000E+00
 31.0509  0.0000000E+00
 31.073  0.0000000E+00
 31.0951  0.0000000E+00
 31.1172  0.0000000E+00
 31.1393  0.0000000E+00
 31.1614  0.0000000E+00
 31.1835  0.0000000E+00
 31.2056  0.0000000E+00
 31.2277  0.0000000E+00
 31.2498  0.0000000E+00
 31.272  0.0000000E+00
 31.2941  0.0000000E+00
 31.3162  0.0000000E+00
 31.3383  0.0000000E+00
 31.3604  0.0000000E+00
 31.3825  0.0000000E+00
 31.4046  0.0000000E+00
 31.4267  0.0000000E+00
 31.4488  0.0000000E+00
 31.4709  0.0000000E+00
 31.493  0.0000000E+00
 31.5151  0.0000000E+00
 31.5373  0.0000000E+00
 31.5594  0.0000000E+00
 31.5815  0.0000000E+00
 31.6036  0.0000000E+00
 31.6257  0.0000000E+00
 31.6478  0.0000000E+00
 31.6699  0.0000000E+00
 31.692  0.0000000E+00
 31.7141  0.0000000E+00
 31.7362  0.0000000E+00
 31.7583  0.0000000E+00
 31.7804  0.0000000E+00
 31.8025  0.0000000E+00
 31.8247  0.0000000E+00
 31.8468  0.0000000E+00
 31.8689  0.0000000E+00
 31.891  0.0000000E+00
 31.9131  0.0000000E+00
 31.9352  0.0000000E+00
 31.9573  0.0000000E+00
 31.9794  0.0000000E+00
 32.0015  0.0000000E+00
 32.0236  0.0000000E+00
 32.0457  0.0000000E+00
 32.0678  0.0000000E+00
 32.09  0.0000000E+00
 32.1121  0.0000000E+00
 32.1342  0.0000000E+00
 32.1563  0.0000000E+00
 32.1784  0.0000000E+00
 32.2005  0.0000000E+00
 32.2226  0.0000000E+00
 32.2447  0.0000000E+00
 32.2668  0.0000000E+00
 32.2889  0.0000000E+00
 32.311  0.0000000E+00
 32.3331  0.0000000E+00
 32.3553  0.0000000E+00
 32.3774  0.0000000E+00
 32.3995  0.0000000E+00
 32.4216  0.0000000E+00
 32.4437  0.0000000E+00
 32.4658  0.0000000E+00
 32.4879  0.0000000E+00
 32.51  0.0000000E+00
 32.5321  0.0000000E+00
 32.5542  0.0000000E+00
 32.5763  0.0000000E+00
 32.5984  0.0000000E+00
 32.6205  0.0000000E+00
 32.6427  0.0000000E+00
 32.6648  0.0000000E+00
 32.6869  0.0000000E+00
 32.709  0.0000000E+00
 32.7311  0.0000000E+00