File: BA_19.chi
D:\DATA\UserData\CuiTian20190403\CWH\BA\BA_19.tif: 2-theta Scan
2-Theta Angle (Degrees)
Intensity
       1481
 0.0110541  41.8902
 0.0331623  42.3715
 0.0552704  43.8833
 0.0773786  43.8173
 0.0994868  44.0166
 0.121595  43.3337
 0.143703  42.3108
 0.165811  41.7908
 0.187919  42.5759
 0.210028  43.1318
 0.232136  42.5458
 0.254244  41.7722
 0.276352  42.2241
 0.29846  42.5518
 0.320568  43.1132
 0.342677  41.9131
 0.364785  41.3769
 0.386893  42.1702
 0.409001  42.905
 0.431109  42.6998
 0.453218  43.3157
 0.475326  43.4282
 0.497434  43.4228
 0.519542  42.6095
 0.54165  42.296
 0.563758  42.8028
 0.585867  43.9191
 0.607975  43.9248
 0.630083  43.6203
 0.652191  43.7874
 0.674299  44.025
 0.696407  43.9856
 0.718516  44.1912
 0.740624  43.4947
 0.762732  43.0406
 0.78484  43.1149
 0.806948  43.0177
 0.829056  43.1986
 0.851165  43.4339
 0.873273  43.4993
 0.895381  43.3836
 0.917489  43.2099
 0.939597  43.4843
 0.961706  43.4147
 0.983814  43.4307
 1.00592  43.7564
 1.02803  44.1227
 1.05014  44.5672
 1.07225  44.7913
 1.09435  44.2658
 1.11646  44.2787
 1.13857  44.6905
 1.16068  44.3271
 1.18279  44.2191
 1.2049  44.6735
 1.227  45.1944
 1.24911  45.4936
 1.27122  45.3431
 1.29333  45.1301
 1.31544  45.394
 1.33754  45.6759
 1.35965  46.1872
 1.38176  46.8177
 1.40387  47.4164
 1.42598  47.8729
 1.44809  47.53
 1.47019  46.8368
 1.4923  46.6179
 1.51441  46.7337
 1.53652  46.972
 1.55863  47.1794
 1.58073  47.4498
 1.60284  48.1472
 1.62495  48.6058
 1.64706  48.5906
 1.66917  48.664
 1.69128  49.5361
 1.71338  50.7379
 1.73549  51.1519
 1.7576  51.2718
 1.77971  51.4947
 1.80182  52.2581
 1.82392  53.5377
 1.84603  55.3724
 1.86814  58.6232
 1.89025  66.398
 1.91236  84.5036
 1.93447  115.802
 1.95657  155.886
 1.97868  196.992
 2.00079  236.354
 2.0229  274.474
 2.04501  314.959
 2.06711  355.52
 2.08922  400.936
 2.11133  448.428
 2.13344  501.527
 2.15555  559.909
 2.17766  619.527
 2.19976  668.016
 2.22187  710.3
 2.24398  750.299
 2.26609  785.273
 2.2882  820.083
 2.3103  852.143
 2.33241  884.667
 2.35452  919.313
 2.37663  952.145
 2.39874  982.695
 2.42084  1012.75
 2.44295  1043.21
 2.46506  1071.5
 2.48717  1103.3
 2.50928  1130.72
 2.53139  1154.6
 2.55349  1179.11
 2.5756  1202.09
 2.59771  1224.42
 2.61982  1248.27
 2.64193  1273.97
 2.66403  1295.96
 2.68614  1318.02
 2.70825  1341.49
 2.73036  1362.7
 2.75247  1380.66
 2.77458  1399.56
 2.79668  1421.39
 2.81879  1443.66
 2.8409  1464.12
 2.86301  1483.85
 2.88512  1503.84
 2.90722  1520.65
 2.92933  1536.41
 2.95144  1553.84
 2.97355  1571.46
 2.99566  1590.12
 3.01777  1606.54
 3.03987  1621.07
 3.06198  1634.12
 3.08409  1647.97
 3.1062  1661.54
 3.12831  1674.17
 3.15041  1692.62
 3.17252  1706.82
 3.19463  1719.87
 3.21674  1730.04
 3.23885  1740.22
 3.26096  1751.71
 3.28306  1762.73
 3.30517  1776.31
 3.32728  1788.08
 3.34939  1796.83
 3.3715  1806.89
 3.3936  1819.51
 3.41571  1828.62
 3.43782  1839.4
 3.45993  1853.4
 3.48204  1863.66
 3.50415  1873.1
 3.52625  1882.62
 3.54836  1893.04
 3.57047  1899.88
 3.59258  1908.09
 3.61469  1918.81
 3.63679  1928.32
 3.6589  1935.4
 3.68101  1943.85
 3.70312  1951.87
 3.72523  1958.58
 3.74734  1961.09
 3.76944  1964.98
 3.79155  1973.94
 3.81366  1981.87
 3.83577  1989.17
 3.85788  1995.24
 3.87998  2002.73
 3.90209  2010.79
 3.9242  2018.63
 3.94631  2023.71
 3.96842  2031.95
 3.99053  2040.29
 4.01263  2045.2
 4.03474  2048.84
 4.05685  2055.28
 4.07896  2058.68
 4.10107  2061.72
 4.12317  2067.64
 4.14528  2072.36
 4.16739  2071.89
 4.1895  2071.63
 4.21161  2073.98
 4.23372  2078.48
 4.25582  2080.47
 4.27793  2084.36
 4.30004  2086.06
 4.32215  2088.97
 4.34426  2095.2
 4.36636  2094.93
 4.38847  2094.98
 4.41058  2100
 4.43269  2104.17
 4.4548  2109.48
 4.4769  2112.66
 4.49901  2113.55
 4.52112  2112.64
 4.54323  2111.11
 4.56534  2112.43
 4.58745  2114.86
 4.60955  2117.44
 4.63166  2119.39
 4.65377  2121.08
 4.67588  2121.26
 4.69799  2124.68
 4.72009  2128.9
 4.7422  2129.9
 4.76431  2132.17
 4.78642  2131.58
 4.80853  2132.22
 4.83064  2130.94
 4.85274  2130.87
 4.87485  2133.99
 4.89696  2135.84
 4.91907  2134.56
 4.94118  2133.49
 4.96328  2135.1
 4.98539  2137.31
 5.0075  2135.81
 5.02961  2135.41
 5.05172  2137.73
 5.07383  2142.12
 5.09593  2141.5
 5.11804  2139.14
 5.14015  2137.84
 5.16226  2136.47
 5.18437  2135.54
 5.20647  2138.01
 5.22858  2140.52
 5.25069  2142.09
 5.2728  2142.22
 5.29491  2142.61
 5.31702  2140.26
 5.33912  2136.9
 5.36123  2136.34
 5.38334  2136.42
 5.40545  2136.79
 5.42756  2134.82
 5.44966  2132.94
 5.47177  2133.45
 5.49388  2133.32
 5.51599  2134.14
 5.5381  2134.94
 5.56021  2136.03
 5.58231  2134.02
 5.60442  2135.57
 5.62653  2139.7
 5.64864  2137.85
 5.67075  2133.77
 5.69285  2131.94
 5.71496  2131.57
 5.73707  2132.16
 5.75918  2129.65
 5.78129  2128.98
 5.8034  2129.34
 5.8255  2129.79
 5.84761  2132.76
 5.86972  2131.88
 5.89183  2129.04
 5.91394  2126.57
 5.93604  2126.36
 5.95815  2126.54
 5.98026  2123.97
 6.00237  2120.76
 6.02448  2119.3
 6.04659  2120.42
 6.06869  2120.23
 6.0908  2120.22
 6.11291  2121.53
 6.13502  2122.78
 6.15713  2121.62
 6.17923  2119.42
 6.20134  2118.15
 6.22345  2117.86
 6.24556  2117.56
 6.26767  2118.03
 6.28978  2118.71
 6.31188  2115.79
 6.33399  2115.46
 6.3561  2115.95
 6.37821  2115.94
 6.40032  2115.98
 6.42242  2114.64
 6.44453  2111.63
 6.46664  2112.25
 6.48875  2112.81
 6.51086  2110.12
 6.53297  2107.51
 6.55507  2106.49
 6.57718  2108.66
 6.59929  2110.02
 6.6214  2110.27
 6.64351  2109.06
 6.66561  2105.55
 6.68772  2104.88
 6.70983  2104.19
 6.73194  2103.33
 6.75405  2105.31
 6.77616  2104.06
 6.79826  2102.75
 6.82037  2102.1
 6.84248  2101.34
 6.86459  2099.69
 6.8867  2098.62
 6.9088  2098.31
 6.93091  2097.24
 6.95302  2096.94
 6.97513  2097.48
 6.99724  2098.4
 7.01934  2098.13
 7.04145  2095.36
 7.06356  2093.63
 7.08567  2093.41
 7.10778  2091.96
 7.12989  2090.53
 7.15199  2089.35
 7.1741  2089.14
 7.19621  2087.91
 7.21832  2087.12
 7.24043  2084.87
 7.26253  2083.83
 7.28464  2081.61
 7.30675  2082.11
 7.32886  2083.59
 7.35097  2082.25
 7.37308  2081.29
 7.39518  2081.07
 7.41729  2081.3
 7.4394  2080.29
 7.46151  2076.03
 7.48362  2075.32
 7.50572  2076.14
 7.52783  2075.33
 7.54994  2075.21
 7.57205  2073.99
 7.59416  2071.97
 7.61627  2070.3
 7.63837  2072.85
 7.66048  2074.31
 7.68259  2074.03
 7.7047  2072.16
 7.72681  2071.52
 7.74891  2071.03
 7.77102  2069.44
 7.79313  2069.33
 7.81524  2070.17
 7.83735  2070.88
 7.85946  2071.46
 7.88156  2073.07
 7.90367  2074.04
 7.92578  2073.21
 7.94789  2072.42
 7.97  2072.38
 7.9921  2072.57
 8.01421  2075.04
 8.03632  2074.94
 8.05843  2073.73
 8.08054  2076.16
 8.10264  2078.05
 8.12475  2079.21
 8.14686  2080.54
 8.16897  2080.7
 8.19108  2081.53
 8.21319  2084.65
 8.23529  2087.64
 8.2574  2090.47
 8.27951  2092.34
 8.30162  2095.27
 8.32373  2100.63
 8.34584  2106.39
 8.36794  2113.25
 8.39005  2120.65
 8.41216  2127.23
 8.43427  2130.85
 8.45638  2136.41
 8.47848  2141.16
 8.50059  2144.8
 8.5227  2145.26
 8.54481  2142.01
 8.56692  2136.41
 8.58903  2131.95
 8.61113  2129.17
 8.63324  2124.5
 8.65535  2121.17
 8.67746  2118.07
 8.69957  2118.42
 8.72167  2118
 8.74378  2117.05
 8.76589  2116.61
 8.788  2116.77
 8.81011  2117.69
 8.83222  2118.22
 8.85432  2117.48
 8.87643  2117.19
 8.89854  2116.18
 8.92065  2113.61
 8.94276  2111.69
 8.96486  2108.69
 8.98697  2105.6
 9.00908  2104.72
 9.03119  2103.7
 9.0533  2101.35
 9.07541  2099.02
 9.09751  2096.74
 9.11962  2093.45
 9.14173  2094.1
 9.16384  2094.86
 9.18595  2093.76
 9.20805  2092.35
 9.23016  2095.19
 9.25227  2098.17
 9.27438  2101.33
 9.29649  2102.2
 9.31859  2104.33
 9.3407  2109.8
 9.36281  2116.46
 9.38492  2125.86
 9.40703  2139.75
 9.42914  2149.62
 9.45124  2149
 9.47335  2143.79
 9.49546  2138.81
 9.51757  2136.3
 9.53968  2137.27
 9.56178  2139.32
 9.58389  2146.15
 9.606  2154.75
 9.62811  2163.92
 9.65022  2173.09
 9.67233  2182.31
 9.69443  2190.51
 9.71654  2198.3
 9.73865  2203.39
 9.76076  2203.26
 9.78287  2200.02
 9.80497  2194.92
 9.82708  2187.73
 9.84919  2178.9
 9.8713  2174.53
 9.89341  2171.39
 9.91552  2167.89
 9.93762  2166.46
 9.95973  2169.91
 9.98184  2172.02
 10.0039  2173.99
 10.0261  2174.49
 10.0482  2175.69
 10.0703  2179.26
 10.0924  2181.4
 10.1145  2182.19
 10.1366  2182.11
 10.1587  2180.47
 10.1808  2179.29
 10.2029  2178.92
 10.225  2179.66
 10.2471  2181.11
 10.2692  2185.6
 10.2914  2190.92
 10.3135  2196.52
 10.3356  2202.49
 10.3577  2209.77
 10.3798  2216.16
 10.4019  2223.89
 10.424  2231.95
 10.4461  2241.71
 10.4682  2253.85
 10.4903  2266.91
 10.5124  2278.75
 10.5345  2289.8
 10.5567  2304.39
 10.5788  2319.95
 10.6009  2333.19
 10.623  2344.73
 10.6451  2354.48
 10.6672  2363.75
 10.6893  2371.47
 10.7114  2375.07
 10.7335  2374.07
 10.7556  2371.6
 10.7777  2370.42
 10.7998  2366.31
 10.822  2364.94
 10.8441  2366.04
 10.8662  2368.36
 10.8883  2370.96
 10.9104  2372.83
 10.9325  2376.62
 10.9546  2380.53
 10.9767  2382.67
 10.9988  2377.95
 11.0209  2370.27
 11.043  2362.78
 11.0651  2354.56
 11.0872  2345.01
 11.1094  2337.98
 11.1315  2332.1
 11.1536  2324.35
 11.1757  2317.24
 11.1978  2312.04
 11.2199  2309.18
 11.242  2307
 11.2641  2306.09
 11.2862  2304.19
 11.3083  2301.28
 11.3304  2300.6
 11.3525  2299.16
 11.3747  2296.36
 11.3968  2293.38
 11.4189  2290.33
 11.441  2286.28
 11.4631  2283.67
 11.4852  2282.29
 11.5073  2280.28
 11.5294  2277.85
 11.5515  2276.52
 11.5736  2273.71
 11.5957  2270.06
 11.6178  2269.15
 11.64  2264.91
 11.6621  2258.77
 11.6842  2256.2
 11.7063  2253.11
 11.7284  2246.81
 11.7505  2241.03
 11.7726  2236.61
 11.7947  2233.21
 11.8168  2228.73
 11.8389  2223.27
 11.861  2220.14
 11.8831  2218.51
 11.9053  2217.39
 11.9274  2215.61
 11.9495  2213.4
 11.9716  2211.12
 11.9937  2207.52
 12.0158  2202.12
 12.0379  2197.74
 12.06  2193.86
 12.0821  2190.67
 12.1042  2188.34
 12.1263  2187.68
 12.1484  2187.09
 12.1705  2185.39
 12.1927  2184.46
 12.2148  2181.38
 12.2369  2179.75
 12.259  2178.52
 12.2811  2177.15
 12.3032  2178.69
 12.3253  2179.06
 12.3474  2179.35
 12.3695  2178.92
 12.3916  2177.56
 12.4137  2176.49
 12.4358  2177.09
 12.458  2177.28
 12.4801  2176.36
 12.5022  2173.69
 12.5243  2171.51
 12.5464  2171.07
 12.5685  2169.05
 12.5906  2167.97
 12.6127  2167.13
 12.6348  2166.57
 12.6569  2165.51
 12.679  2164.85
 12.7011  2165.57
 12.7233  2165.69
 12.7454  2164.93
 12.7675  2165.17
 12.7896  2165.98
 12.8117  2166.85
 12.8338  2166.08
 12.8559  2164.27
 12.878  2163.99
 12.9001  2164.45
 12.9222  2165.58
 12.9443  2167.33
 12.9664  2167.64
 12.9886  2168.02
 13.0107  2168.98
 13.0328  2171.15
 13.0549  2172.72
 13.077  2173.54
 13.0991  2173.66
 13.1212  2173.5
 13.1433  2173.64
 13.1654  2175.17
 13.1875  2176.34
 13.2096  2180.08
 13.2317  2181.65
 13.2538  2183.21
 13.276  2187.18
 13.2981  2190.93
 13.3202  2195.97
 13.3423  2198.81
 13.3644  2194.5
 13.3865  2193.45
 13.4086  2194.65
 13.4307  2191.52
 13.4528  2188.15
 13.4749  2187.02
 13.497  2187.4
 13.5191  2187.41
 13.5413  2188.36
 13.5634  2189.7
 13.5855  2191.62
 13.6076  2193.81
 13.6297  2195.74
 13.6518  2197.17
 13.6739  2196.77
 13.696  2197.36
 13.7181  2198.72
 13.7402  2199.51
 13.7623  2199.94
 13.7844  2199.48
 13.8066  2200.03
 13.8287  2200.48
 13.8508  2198.92
 13.8729  2197.2
 13.895  2196.41
 13.9171  2195.97
 13.9392  2195.32
 13.9613  2196.49
 13.9834  2197.59
 14.0055  2198.51
 14.0276  2199.73
 14.0497  2199.51
 14.0719  2200.31
 14.094  2202.29
 14.1161  2205.79
 14.1382  2207.59
 14.1603  2211.42
 14.1824  2215.22
 14.2045  2216.42
 14.2266  2217.33
 14.2487  2217.12
 14.2708  2217.36
 14.2929  2217.05
 14.315  2215.57
 14.3371  2215.29
 14.3593  2216.68
 14.3814  2217.29
 14.4035  2217.42
 14.4256  2217.74
 14.4477  2218.52
 14.4698  2220.22
 14.4919  2220.9
 14.514  2220.16
 14.5361  2219.29
 14.5582  2218.51
 14.5803  2218.34
 14.6024  2218.78
 14.6246  2219.95
 14.6467  2221.53
 14.6688  2220.88
 14.6909  2221.57
 14.713  2222.14
 14.7351  2221.13
 14.7572  2221.25
 14.7793  2220.79
 14.8014  2220.36
 14.8235  2221.77
 14.8456  2224.07
 14.8677  2225.62
 14.8899  2226.14
 14.912  2225.26
 14.9341  2226.72
 14.9562  2228.08
 14.9783  2229.24
 15.0004  2230.78
 15.0225  2233.13
 15.0446  2235.03
 15.0667  2236.36
 15.0888  2237.83
 15.1109  2238.52
 15.133  2240.49
 15.1552  2243.33
 15.1773  2245.15
 15.1994  2245.89
 15.2215  2246.75
 15.2436  2249.41
 15.2657  2251.95
 15.2878  2253.77
 15.3099  2256.5
 15.332  2259.6
 15.3541  2261.11
 15.3762  2262.62
 15.3983  2264.25
 15.4205  2266.42
 15.4426  2266.21
 15.4647  2265.73
 15.4868  2266.2
 15.5089  2266.1
 15.531  2267.15
 15.5531  2268.26
 15.5752  2270.35
 15.5973  2271.06
 15.6194  2270.67
 15.6415  2269.34
 15.6636  2269.53
 15.6857  2269.08
 15.7079  2267.99
 15.73  2267.6
 15.7521  2268.2
 15.7742  2269.53
 15.7963  2269.52
 15.8184  2270.16
 15.8405  2268.42
 15.8626  2268.84
 15.8847  2270.08
 15.9068  2271.68
 15.9289  2274.75
 15.951  2274.7
 15.9732  2274.24
 15.9953  2276.15
 16.0174  2277.54
 16.0395  2279.34
 16.0616  2280.86
 16.0837  2279.5
 16.1058  2277.53
 16.1279  2278.33
 16.15  2278.97
 16.1721  2278.86
 16.1942  2279.35
 16.2163  2279.29
 16.2385  2281.37
 16.2606  2282.7
 16.2827  2282.36
 16.3048  2283.41
 16.3269  2284.32
 16.349  2283.24
 16.3711  2281.3
 16.3932  2277.86
 16.4153  2274.79
 16.4374  2271.98
 16.4595  2270.1
 16.4816  2268.72
 16.5038  2266.59
 16.5259  2265.54
 16.548  2265.07
 16.5701  2264.33
 16.5922  2265.25
 16.6143  2263.67
 16.6364  2261.64
 16.6585  2262.1
 16.6806  2261.17
 16.7027  2259.72
 16.7248  2259.68
 16.7469  2259.17
 16.769  2256.89
 16.7912  2255.9
 16.8133  2255.59
 16.8354  2252.61
 16.8575  2252.08
 16.8796  2252.7
 16.9017  2253.16
 16.9238  2252.71
 16.9459  2252.55
 16.968  2253.69
 16.9901  2254.58
 17.0122  2256.59
 17.0343  2257.56
 17.0565  2255.76
 17.0786  2255.7
 17.1007  2256.41
 17.1228  2256.3
 17.1449  2255.81
 17.167  2253.02
 17.1891  2251.1
 17.2112  2249.52
 17.2333  2247.89
 17.2554  2246.4
 17.2775  2245.39
 17.2996  2244.25
 17.3218  2244.44
 17.3439  2244.21
 17.366  2244.46
 17.3881  2245.05
 17.4102  2244.72
 17.4323  2243.33
 17.4544  2241.77
 17.4765  2238.74
 17.4986  2235.26
 17.5207  2234.02
 17.5428  2232.93
 17.5649  2231.39
 17.5871  2230.12
 17.6092  2229.39
 17.6313  2227.79
 17.6534  2225.31
 17.6755  2222.38
 17.6976  2220.28
 17.7197  2219.53
 17.7418  2218.58
 17.7639  2218.34
 17.786  2216.8
 17.8081  2214.79
 17.8302  2213.82
 17.8524  2213.62
 17.8745  2214.64
 17.8966  2215.16
 17.9187  2215.06
 17.9408  2213.08
 17.9629  2210.49
 17.985  2208.42
 18.0071  2205.88
 18.0292  2204.22
 18.0513  2202.32
 18.0734  2200.11
 18.0955  2196.44
 18.1176  2194.77
 18.1398  2194.78
 18.1619  2193.7
 18.184  2193.16
 18.2061  2192.94
 18.2282  2191.77
 18.2503  2190.22
 18.2724  2187.68
 18.2945  2185.6
 18.3166  2184.13
 18.3387  2183.45
 18.3608  2182.21
 18.3829  2179.9
 18.4051  2178.03
 18.4272  2175.67
 18.4493  2173.94
 18.4714  2173.42
 18.4935  2172.19
 18.5156  2173.49
 18.5377  2173.81
 18.5598  2173.23
 18.5819  2172.65
 18.604  2171.4
 18.6261  2171.62
 18.6482  2171.4
 18.6704  2172.09
 18.6925  2171.37
 18.7146  2170.77
 18.7367  2171.26
 18.7588  2169.3
 18.7809  2167.67
 18.803  2165.73
 18.8251  2162.64
 18.8472  2159.73
 18.8693  2155.19
 18.8914  2151.5
 18.9135  2149.13
 18.9356  2145.69
 18.9578  2139.24
 18.9799  2131.9
 19.002  2128.42
 19.0241  2125.64
 19.0462  2120.47
 19.0683  2116.39
 19.0904  2113.05
 19.1125  2110.19
 19.1346  2105.85
 19.1567  2101.35
 19.1788  2098.65
 19.2009  2096.75
 19.2231  2095.75
 19.2452  2092.44
 19.2673  2086.68
 19.2894  2082.86
 19.3115  2080.48
 19.3336  2078
 19.3557  2075.16
 19.3778  2071.71
 19.3999  2068.55
 19.422  2067.51
 19.4441  2065.47
 19.4662  2061.44
 19.4884  2059.27
 19.5105  2056.4
 19.5326  2053.89
 19.5547  2051.43
 19.5768  2048.95
 19.5989  2047.65
 19.621  2045.51
 19.6431  2041.58
 19.6652  2037.7
 19.6873  2034.78
 19.7094  2033.17
 19.7315  2031.45
 19.7537  2028.97
 19.7758  2026.32
 19.7979  2023.31
 19.82  2021.61
 19.8421  2019.99
 19.8642  2017.95
 19.8863  2015.68
 19.9084  2012.56
 19.9305  2009.91
 19.9526  2008.59
 19.9747  2006.6
 19.9968  2004.64
 20.019  2003.63
 20.0411  2002.53
 20.0632  2000.35
 20.0853  1997.83
 20.1074  1995.49
 20.1295  1994.1
 20.1516  1993.8
 20.1737  1991.93
 20.1958  1988.7
 20.2179  1985.56
 20.24  1982.61
 20.2621  1980.46
 20.2842  1979.99
 20.3064  1977.72
 20.3285  1974.03
 20.3506  1971.47
 20.3727  1969.06
 20.3948  1966.44
 20.4169  1965.63
 20.439  1962.85
 20.4611  1959.93
 20.4832  1956.97
 20.5053  1953.43
 20.5274  1951.25
 20.5495  1950.05
 20.5717  1947.78
 20.5938  1944.99
 20.6159  1943.48
 20.638  1941.27
 20.6601  1939.17
 20.6822  1935.81
 20.7043  1933.5
 20.7264  1931.8
 20.7485  1930.52
 20.7706  1928.51
 20.7927  1927.15
 20.8148  1924.87
 20.837  1922.85
 20.8591  1920.27
 20.8812  1919.07
 20.9033  1917.93
 20.9254  1916.85
 20.9475  1914.46
 20.9696  1912.43
 20.9917  1911
 21.0138  1909.13
 21.0359  1906.38
 21.058  1904.87
 21.0801  1905.29
 21.1023  1903.15
 21.1244  1900.23
 21.1465  1900.22
 21.1686  1898.86
 21.1907  1895.77
 21.2128  1895.51
 21.2349  1895.22
 21.257  1892.53
 21.2791  1890.15
 21.3012  1890.27
 21.3233  1889.18
 21.3454  1887.24
 21.3676  1885.65
 21.3897  1884.75
 21.4118  1882.56
 21.4339  1880.51
 21.456  1879.88
 21.4781  1878.35
 21.5002  1875.98
 21.5223  1873.78
 21.5444  1871.55
 21.5665  1869.71
 21.5886  1867.84
 21.6107  1866.19
 21.6328  1863.24
 21.655  1862.26
 21.6771  1860.47
 21.6992  1859.37
 21.7213  1858.04
 21.7434  1855.91
 21.7655  1854.19
 21.7876  1853.04
 21.8097  1850.4
 21.8318  1847.76
 21.8539  1845.79
 21.876  1843.53
 21.8981  1841.67
 21.9203  1841.68
 21.9424  1840.12
 21.9645  1837.29
 21.9866  1836.27
 22.0087  1836
 22.0308  1834.9
 22.0529  1832.89
 22.075  1831.66
 22.0971  1830.51
 22.1192  1829.34
 22.1413  1828.69
 22.1634  1827.16
 22.1856  1824.4
 22.2077  1823
 22.2298  1821.65
 22.2519  1819.7
 22.274  1818.82
 22.2961  1817.59
 22.3182  1817.44
 22.3403  1815.06
 22.3624  1813.71
 22.3845  1811.62
 22.4066  1810
 22.4287  1808.4
 22.4508  1807.28
 22.473  1804.2
 22.4951  1802.23
 22.5172  1801.73
 22.5393  1800.11
 22.5614  1798.18
 22.5835  1797.53
 22.6056  1795.54
 22.6277  1792.52
 22.6498  1790.48
 22.6719  1788.66
 22.694  1788.16
 22.7161  1786.86
 22.7383  1785.36
 22.7604  1784.28
 22.7825  1782.07
 22.8046  1780.25
 22.8267  1780.43
 22.8488  1777.44
 22.8709  1776.73
 22.893  1776.06
 22.9151  1774.41
 22.9372  1771.58
 22.9593  1770.58
 22.9814  1767.43
 23.0036  1768.42
 23.0257  1766.85
 23.0478  1764.03
 23.0699  1762.4
 23.092  1761.58
 23.1141  1758.28
 23.1362  1726.45
 23.1583  1626.96
 23.1804  1535.77
 23.2025  1470.88
 23.2246  1430.69
 23.2467  1392.14
 23.2689  1350.28
 23.291  1311.01
 23.3131  1301.2
 23.3352  1281.2
 23.3573  1260.11
 23.3794  1238.5
 23.4015  1219.09
 23.4236  1197.26
 23.4457  1178.7
 23.4678  1161.76
 23.4899  1145.52
 23.512  1132.55
 23.5341  1133.5
 23.5563  1125.44
 23.5784  1118.14
 23.6005  1109.36
 23.6226  1103.05
 23.6447  1093.33
 23.6668  1086.36
 23.6889  1078.21
 23.711  1072.66
 23.7331  1065.25
 23.7552  1060.35
 23.7773  1056.6
 23.7994  1053.8
 23.8216  1051.76
 23.8437  1049.93
 23.8658  1049.88
 23.8879  1048.7
 23.91  1049.45
 23.9321  1047.75
 23.9542  1047.6
 23.9763  1046.31
 23.9984  1046.11
 24.0205  1044.43
 24.0426  1044.51
 24.0647  1040.42
 24.0869  1038.35
 24.109  1032.64
 24.1311  1026.06
 24.1532  1019.25
 24.1753  1008.32
 24.1974  998.074
 24.2195  987.128
 24.2416  972.65
 24.2637  959.269
 24.2858  945.597
 24.3079  930.585
 24.33  914.598
 24.3522  897.297
 24.3743  878.458
 24.3964  858.785
 24.4185  837.927
 24.4406  825.857
 24.4627  805.7
 24.4848  779.254
 24.5069  755.772
 24.529  721.857
 24.5511  696.954
 24.5732  649.992
 24.5953  607.145
 24.6175  556.384
 24.6396  522.834
 24.6617  482.34
 24.6838  429.475
 24.7059  362.133
 24.728  276.086
 24.7501  138.319
 24.7722  23.9526
 24.7943  0.0386731
 24.8164  0.0000000E+00
 24.8385  0.0000000E+00
 24.8606  0.0000000E+00
 24.8827  0.0000000E+00
 24.9049  0.0000000E+00
 24.927  0.0000000E+00
 24.9491  0.0000000E+00
 24.9712  0.0000000E+00
 24.9933  0.0000000E+00
 25.0154  0.0000000E+00
 25.0375  0.0000000E+00
 25.0596  0.0000000E+00
 25.0817  0.0000000E+00
 25.1038  0.0000000E+00
 25.1259  0.0000000E+00
 25.148  0.0000000E+00
 25.1702  0.0000000E+00
 25.1923  0.0000000E+00
 25.2144  0.0000000E+00
 25.2365  0.0000000E+00
 25.2586  0.0000000E+00
 25.2807  0.0000000E+00
 25.3028  0.0000000E+00
 25.3249  0.0000000E+00
 25.347  0.0000000E+00
 25.3691  0.0000000E+00
 25.3912  0.0000000E+00
 25.4133  0.0000000E+00
 25.4355  0.0000000E+00
 25.4576  0.0000000E+00
 25.4797  0.0000000E+00
 25.5018  0.0000000E+00
 25.5239  0.0000000E+00
 25.546  0.0000000E+00
 25.5681  0.0000000E+00
 25.5902  0.0000000E+00
 25.6123  0.0000000E+00
 25.6344  0.0000000E+00
 25.6565  0.0000000E+00
 25.6786  0.0000000E+00
 25.7007  0.0000000E+00
 25.7229  0.0000000E+00
 25.745  0.0000000E+00
 25.7671  0.0000000E+00
 25.7892  0.0000000E+00
 25.8113  0.0000000E+00
 25.8334  0.0000000E+00
 25.8555  0.0000000E+00
 25.8776  0.0000000E+00
 25.8997  0.0000000E+00
 25.9218  0.0000000E+00
 25.9439  0.0000000E+00
 25.966  0.0000000E+00
 25.9882  0.0000000E+00
 26.0103  0.0000000E+00
 26.0324  0.0000000E+00
 26.0545  0.0000000E+00
 26.0766  0.0000000E+00
 26.0987  0.0000000E+00
 26.1208  0.0000000E+00
 26.1429  0.0000000E+00
 26.165  0.0000000E+00
 26.1871  0.0000000E+00
 26.2092  0.0000000E+00
 26.2313  0.0000000E+00
 26.2535  0.0000000E+00
 26.2756  0.0000000E+00
 26.2977  0.0000000E+00
 26.3198  0.0000000E+00
 26.3419  0.0000000E+00
 26.364  0.0000000E+00
 26.3861  0.0000000E+00
 26.4082  0.0000000E+00
 26.4303  0.0000000E+00
 26.4524  0.0000000E+00
 26.4745  0.0000000E+00
 26.4966  0.0000000E+00
 26.5188  0.0000000E+00
 26.5409  0.0000000E+00
 26.563  0.0000000E+00
 26.5851  0.0000000E+00
 26.6072  0.0000000E+00
 26.6293  0.0000000E+00
 26.6514  0.0000000E+00
 26.6735  0.0000000E+00
 26.6956  0.0000000E+00
 26.7177  0.0000000E+00
 26.7398  0.0000000E+00
 26.7619  0.0000000E+00
 26.7841  0.0000000E+00
 26.8062  0.0000000E+00
 26.8283  0.0000000E+00
 26.8504  0.0000000E+00
 26.8725  0.0000000E+00
 26.8946  0.0000000E+00
 26.9167  0.0000000E+00
 26.9388  0.0000000E+00
 26.9609  0.0000000E+00
 26.983  0.0000000E+00
 27.0051  0.0000000E+00
 27.0272  0.0000000E+00
 27.0493  0.0000000E+00
 27.0715  0.0000000E+00
 27.0936  0.0000000E+00
 27.1157  0.0000000E+00
 27.1378  0.0000000E+00
 27.1599  0.0000000E+00
 27.182  0.0000000E+00
 27.2041  0.0000000E+00
 27.2262  0.0000000E+00
 27.2483  0.0000000E+00
 27.2704  0.0000000E+00
 27.2925  0.0000000E+00
 27.3146  0.0000000E+00
 27.3368  0.0000000E+00
 27.3589  0.0000000E+00
 27.381  0.0000000E+00
 27.4031  0.0000000E+00
 27.4252  0.0000000E+00
 27.4473  0.0000000E+00
 27.4694  0.0000000E+00
 27.4915  0.0000000E+00
 27.5136  0.0000000E+00
 27.5357  0.0000000E+00
 27.5578  0.0000000E+00
 27.5799  0.0000000E+00
 27.6021  0.0000000E+00
 27.6242  0.0000000E+00
 27.6463  0.0000000E+00
 27.6684  0.0000000E+00
 27.6905  0.0000000E+00
 27.7126  0.0000000E+00
 27.7347  0.0000000E+00
 27.7568  0.0000000E+00
 27.7789  0.0000000E+00
 27.801  0.0000000E+00
 27.8231  0.0000000E+00
 27.8452  0.0000000E+00
 27.8674  0.0000000E+00
 27.8895  0.0000000E+00
 27.9116  0.0000000E+00
 27.9337  0.0000000E+00
 27.9558  0.0000000E+00
 27.9779  0.0000000E+00
 28  0.0000000E+00
 28.0221  0.0000000E+00
 28.0442  0.0000000E+00
 28.0663  0.0000000E+00
 28.0884  0.0000000E+00
 28.1105  0.0000000E+00
 28.1327  0.0000000E+00
 28.1548  0.0000000E+00
 28.1769  0.0000000E+00
 28.199  0.0000000E+00
 28.2211  0.0000000E+00
 28.2432  0.0000000E+00
 28.2653  0.0000000E+00
 28.2874  0.0000000E+00
 28.3095  0.0000000E+00
 28.3316  0.0000000E+00
 28.3537  0.0000000E+00
 28.3758  0.0000000E+00
 28.3979  0.0000000E+00
 28.4201  0.0000000E+00
 28.4422  0.0000000E+00
 28.4643  0.0000000E+00
 28.4864  0.0000000E+00
 28.5085  0.0000000E+00
 28.5306  0.0000000E+00
 28.5527  0.0000000E+00
 28.5748  0.0000000E+00
 28.5969  0.0000000E+00
 28.619  0.0000000E+00
 28.6411  0.0000000E+00
 28.6632  0.0000000E+00
 28.6854  0.0000000E+00
 28.7075  0.0000000E+00
 28.7296  0.0000000E+00
 28.7517  0.0000000E+00
 28.7738  0.0000000E+00
 28.7959  0.0000000E+00
 28.818  0.0000000E+00
 28.8401  0.0000000E+00
 28.8622  0.0000000E+00
 28.8843  0.0000000E+00
 28.9064  0.0000000E+00
 28.9285  0.0000000E+00
 28.9507  0.0000000E+00
 28.9728  0.0000000E+00
 28.9949  0.0000000E+00
 29.017  0.0000000E+00
 29.0391  0.0000000E+00
 29.0612  0.0000000E+00
 29.0833  0.0000000E+00
 29.1054  0.0000000E+00
 29.1275  0.0000000E+00
 29.1496  0.0000000E+00
 29.1717  0.0000000E+00
 29.1938  0.0000000E+00
 29.2159  0.0000000E+00
 29.2381  0.0000000E+00
 29.2602  0.0000000E+00
 29.2823  0.0000000E+00
 29.3044  0.0000000E+00
 29.3265  0.0000000E+00
 29.3486  0.0000000E+00
 29.3707  0.0000000E+00
 29.3928  0.0000000E+00
 29.4149  0.0000000E+00
 29.437  0.0000000E+00
 29.4591  0.0000000E+00
 29.4812  0.0000000E+00
 29.5034  0.0000000E+00
 29.5255  0.0000000E+00
 29.5476  0.0000000E+00
 29.5697  0.0000000E+00
 29.5918  0.0000000E+00
 29.6139  0.0000000E+00
 29.636  0.0000000E+00
 29.6581  0.0000000E+00
 29.6802  0.0000000E+00
 29.7023  0.0000000E+00
 29.7244  0.0000000E+00
 29.7465  0.0000000E+00
 29.7687  0.0000000E+00
 29.7908  0.0000000E+00
 29.8129  0.0000000E+00
 29.835  0.0000000E+00
 29.8571  0.0000000E+00
 29.8792  0.0000000E+00
 29.9013  0.0000000E+00
 29.9234  0.0000000E+00
 29.9455  0.0000000E+00
 29.9676  0.0000000E+00
 29.9897  0.0000000E+00
 30.0118  0.0000000E+00
 30.034  0.0000000E+00
 30.0561  0.0000000E+00
 30.0782  0.0000000E+00
 30.1003  0.0000000E+00
 30.1224  0.0000000E+00
 30.1445  0.0000000E+00
 30.1666  0.0000000E+00
 30.1887  0.0000000E+00
 30.2108  0.0000000E+00
 30.2329  0.0000000E+00
 30.255  0.0000000E+00
 30.2771  0.0000000E+00
 30.2993  0.0000000E+00
 30.3214  0.0000000E+00
 30.3435  0.0000000E+00
 30.3656  0.0000000E+00
 30.3877  0.0000000E+00
 30.4098  0.0000000E+00
 30.4319  0.0000000E+00
 30.454  0.0000000E+00
 30.4761  0.0000000E+00
 30.4982  0.0000000E+00
 30.5203  0.0000000E+00
 30.5424  0.0000000E+00
 30.5645  0.0000000E+00
 30.5867  0.0000000E+00
 30.6088  0.0000000E+00
 30.6309  0.0000000E+00
 30.653  0.0000000E+00
 30.6751  0.0000000E+00
 30.6972  0.0000000E+00
 30.7193  0.0000000E+00
 30.7414  0.0000000E+00
 30.7635  0.0000000E+00
 30.7856  0.0000000E+00
 30.8077  0.0000000E+00
 30.8298  0.0000000E+00
 30.852  0.0000000E+00
 30.8741  0.0000000E+00
 30.8962  0.0000000E+00
 30.9183  0.0000000E+00
 30.9404  0.0000000E+00
 30.9625  0.0000000E+00
 30.9846  0.0000000E+00
 31.0067  0.0000000E+00
 31.0288  0.0000000E+00
 31.0509  0.0000000E+00
 31.073  0.0000000E+00
 31.0951  0.0000000E+00
 31.1173  0.0000000E+00
 31.1394  0.0000000E+00
 31.1615  0.0000000E+00
 31.1836  0.0000000E+00
 31.2057  0.0000000E+00
 31.2278  0.0000000E+00
 31.2499  0.0000000E+00
 31.272  0.0000000E+00
 31.2941  0.0000000E+00
 31.3162  0.0000000E+00
 31.3383  0.0000000E+00
 31.3604  0.0000000E+00
 31.3826  0.0000000E+00
 31.4047  0.0000000E+00
 31.4268  0.0000000E+00
 31.4489  0.0000000E+00
 31.471  0.0000000E+00
 31.4931  0.0000000E+00
 31.5152  0.0000000E+00
 31.5373  0.0000000E+00
 31.5594  0.0000000E+00
 31.5815  0.0000000E+00
 31.6036  0.0000000E+00
 31.6257  0.0000000E+00
 31.6478  0.0000000E+00
 31.67  0.0000000E+00
 31.6921  0.0000000E+00
 31.7142  0.0000000E+00
 31.7363  0.0000000E+00
 31.7584  0.0000000E+00
 31.7805  0.0000000E+00
 31.8026  0.0000000E+00
 31.8247  0.0000000E+00
 31.8468  0.0000000E+00
 31.8689  0.0000000E+00
 31.891  0.0000000E+00
 31.9131  0.0000000E+00
 31.9353  0.0000000E+00
 31.9574  0.0000000E+00
 31.9795  0.0000000E+00
 32.0016  0.0000000E+00
 32.0237  0.0000000E+00
 32.0458  0.0000000E+00
 32.0679  0.0000000E+00
 32.09  0.0000000E+00
 32.1121  0.0000000E+00
 32.1342  0.0000000E+00
 32.1563  0.0000000E+00
 32.1784  0.0000000E+00
 32.2006  0.0000000E+00
 32.2227  0.0000000E+00
 32.2448  0.0000000E+00
 32.2669  0.0000000E+00
 32.289  0.0000000E+00
 32.3111  0.0000000E+00
 32.3332  0.0000000E+00
 32.3553  0.0000000E+00
 32.3774  0.0000000E+00
 32.3995  0.0000000E+00
 32.4216  0.0000000E+00
 32.4437  0.0000000E+00
 32.4659  0.0000000E+00
 32.488  0.0000000E+00
 32.5101  0.0000000E+00
 32.5322  0.0000000E+00
 32.5543  0.0000000E+00
 32.5764  0.0000000E+00
 32.5985  0.0000000E+00
 32.6206  0.0000000E+00
 32.6427  0.0000000E+00
 32.6648  0.0000000E+00
 32.6869  0.0000000E+00
 32.709  0.0000000E+00
 32.7312  0.0000000E+00