File: BA_1.chi
D:\DATA\UserData\CuiTian20190403\CWH\BA\BA_1.tif: 2-theta Scan
2-Theta Angle (Degrees)
Intensity
       1138
 0.011662  44.3735
 0.0349861  45.5756
 0.0583102  42.6777
 0.0816343  39.4326
 0.104958  39.438
 0.128282  39.6999
 0.151607  38.11
 0.174931  36.2973
 0.198255  36.3399
 0.221579  36.8078
 0.244903  36.0077
 0.268227  36.3993
 0.291551  37.54
 0.314875  36.5223
 0.338199  37.3465
 0.361523  37.6548
 0.384847  37.7168
 0.408171  37.0033
 0.431496  36.2874
 0.45482  35.8194
 0.478144  36.2262
 0.501468  37.2521
 0.524792  38.8668
 0.548116  38.8796
 0.57144  37.6455
 0.594764  37.2732
 0.618088  37.5586
 0.641412  37.7287
 0.664736  37.8569
 0.68806  37.8023
 0.711384  37.7705
 0.734709  37.569
 0.758033  37.2811
 0.781357  37.7157
 0.804681  38.0493
 0.828005  37.7699
 0.851329  38.014
 0.874653  38.0667
 0.897977  37.479
 0.921301  37.6919
 0.944625  37.7537
 0.967949  38.0619
 0.991273  37.7141
 1.0146  37.9892
 1.03792  38.5003
 1.06125  38.6316
 1.08457  38.4317
 1.10789  38.2291
 1.13122  38.261
 1.15454  38.5501
 1.17787  38.607
 1.20119  38.4027
 1.22451  38.5664
 1.24784  38.4104
 1.27116  38.1486
 1.29449  38.1871
 1.31781  38.2253
 1.34113  38.4363
 1.36446  38.3861
 1.38778  38.6077
 1.41111  38.7474
 1.43443  39.2791
 1.45776  39.7412
 1.48108  39.9014
 1.5044  39.9621
 1.52773  40.2337
 1.55105  40.3116
 1.57438  40.1372
 1.5977  40.0904
 1.62102  40.3483
 1.64435  40.9965
 1.66767  40.9681
 1.691  41.0617
 1.71432  41.5687
 1.73764  41.9033
 1.76097  42.2108
 1.78429  42.9013
 1.80762  43.4603
 1.83094  43.8147
 1.85426  44.9184
 1.87759  47.2282
 1.90091  52.8274
 1.92424  66.3114
 1.94756  87.8277
 1.97088  112.927
 1.99421  139.081
 2.01753  162.584
 2.04086  185.794
 2.06418  210.559
 2.08751  236.639
 2.11083  262.709
 2.13415  291.877
 2.15748  322.431
 2.1808  355.766
 2.20413  395.264
 2.22745  430.791
 2.25077  458.097
 2.2741  481.938
 2.29742  504.058
 2.32075  525.348
 2.34407  546.165
 2.36739  566.823
 2.39072  587.43
 2.41404  608.339
 2.43737  627.554
 2.46069  646.638
 2.48401  664.965
 2.50734  682.991
 2.53066  700.499
 2.55399  718.516
 2.57731  734.107
 2.60064  749.138
 2.62396  764.438
 2.64728  782.356
 2.67061  798.112
 2.69393  810.235
 2.71726  822.329
 2.74058  839.48
 2.7639  854.483
 2.78723  865.072
 2.81055  877.367
 2.83388  891.278
 2.8572  903.816
 2.88052  915.374
 2.90385  926.292
 2.92717  938.645
 2.9505  952.721
 2.97382  964.56
 2.99714  973.733
 3.02047  983.444
 3.04379  993.557
 3.06712  1002.8
 3.09044  1014.67
 3.11376  1025.63
 3.13709  1034.05
 3.16041  1041.05
 3.18374  1050.51
 3.20706  1058.45
 3.23039  1064.37
 3.25371  1071.98
 3.27703  1081.25
 3.30036  1088.48
 3.32368  1095.52
 3.34701  1101.43
 3.37033  1108.9
 3.39365  1117.42
 3.41698  1126.23
 3.4403  1131.37
 3.46363  1136.15
 3.48695  1143.98
 3.51027  1152.11
 3.5336  1157.96
 3.55692  1165.01
 3.58025  1170.72
 3.60357  1177.58
 3.62689  1183.14
 3.65022  1187.93
 3.67354  1194.04
 3.69687  1198.84
 3.72019  1203.15
 3.74351  1206.07
 3.76684  1208.64
 3.79016  1211.01
 3.81349  1215.01
 3.83681  1220.16
 3.86014  1225.93
 3.88346  1228.7
 3.90678  1232.91
 3.93011  1239.13
 3.95343  1243.14
 3.97676  1245.24
 4.00008  1246.95
 4.0234  1249.83
 4.04673  1255.42
 4.07005  1260.26
 4.09338  1264.65
 4.1167  1268.08
 4.14002  1268.99
 4.16335  1270.28
 4.18667  1271.34
 4.21  1274.08
 4.23332  1277.56
 4.25664  1280.5
 4.27997  1282.74
 4.30329  1285.6
 4.32662  1287.03
 4.34994  1289.99
 4.37327  1293.77
 4.39659  1294.9
 4.41991  1295.23
 4.44324  1296.96
 4.46656  1300.15
 4.48989  1300.81
 4.51321  1300.31
 4.53653  1299.43
 4.55986  1302.09
 4.58318  1305.79
 4.60651  1307.65
 4.62983  1307.21
 4.65315  1307.16
 4.67648  1307.78
 4.6998  1307.75
 4.72313  1309.59
 4.74645  1311.08
 4.76977  1311.59
 4.7931  1312.91
 4.81642  1313.42
 4.83975  1314.37
 4.86307  1314.34
 4.8864  1314.82
 4.90972  1315.77
 4.93304  1316.2
 4.95637  1315.57
 4.97969  1316.06
 5.00302  1318.33
 5.02634  1318.95
 5.04966  1318.52
 5.07299  1318.18
 5.09631  1317.7
 5.11964  1317.87
 5.14296  1317.43
 5.16628  1317.64
 5.18961  1319.2
 5.21293  1319.58
 5.23626  1319.04
 5.25958  1318.85
 5.2829  1317.61
 5.30623  1317.26
 5.32955  1316.96
 5.35288  1317.45
 5.3762  1318.15
 5.39952  1317.28
 5.42285  1317.73
 5.44617  1319.17
 5.4695  1319.41
 5.49282  1320.74
 5.51615  1320.28
 5.53947  1318.61
 5.56279  1318.15
 5.58612  1317.79
 5.60944  1316.56
 5.63277  1315.3
 5.65609  1315.75
 5.67941  1315.86
 5.70274  1315.84
 5.72606  1316.3
 5.74939  1316.72
 5.77271  1315.61
 5.79603  1314.62
 5.81936  1314.42
 5.84268  1312.52
 5.86601  1311.83
 5.88933  1311.9
 5.91265  1311.2
 5.93598  1310.72
 5.9593  1308.61
 5.98263  1308.98
 6.00595  1309.72
 6.02927  1309.73
 6.0526  1309.01
 6.07592  1308.36
 6.09925  1308.16
 6.12257  1308.23
 6.1459  1307.4
 6.16922  1306.6
 6.19254  1306
 6.21587  1306.76
 6.23919  1307.49
 6.26252  1306.87
 6.28584  1304.79
 6.30916  1303.6
 6.33249  1303.86
 6.35581  1303.11
 6.37914  1302.37
 6.40246  1301.69
 6.42578  1302.9
 6.44911  1302.99
 6.47243  1303.41
 6.49576  1304.02
 6.51908  1304.88
 6.54241  1302.94
 6.56573  1302.4
 6.58905  1302.25
 6.61238  1299.82
 6.6357  1299.23
 6.65903  1297.73
 6.68235  1295.62
 6.70567  1295.8
 6.729  1297.35
 6.75232  1298.39
 6.77565  1296.4
 6.79897  1295.65
 6.82229  1295.25
 6.84562  1293.93
 6.86894  1293.44
 6.89227  1293.55
 6.91559  1292.91
 6.93891  1289.82
 6.96224  1288.33
 6.98556  1288.04
 7.00889  1289.2
 7.03221  1290.2
 7.05553  1288.46
 7.07886  1287.93
 7.10218  1288.59
 7.12551  1287.37
 7.14883  1285.91
 7.17215  1286.37
 7.19548  1286.18
 7.2188  1284.88
 7.24213  1283.72
 7.26545  1284.53
 7.28878  1284.28
 7.3121  1284.4
 7.33542  1283.38
 7.35875  1280.75
 7.38207  1279.63
 7.4054  1279.15
 7.42872  1277.45
 7.45204  1277.73
 7.47537  1277.18
 7.49869  1275.59
 7.52202  1275.33
 7.54534  1277.98
 7.56866  1280.21
 7.59199  1278.77
 7.61531  1276.88
 7.63864  1277.08
 7.66196  1276.56
 7.68529  1275.2
 7.70861  1275.14
 7.73193  1274.4
 7.75526  1273.98
 7.77858  1273.54
 7.80191  1273.65
 7.82523  1273.55
 7.84855  1274.73
 7.87188  1274.45
 7.8952  1273
 7.91853  1272.01
 7.94185  1270.44
 7.96517  1270.51
 7.9885  1272.09
 8.01182  1270.5
 8.03515  1270.28
 8.05847  1269.82
 8.08179  1268.41
 8.10512  1268.01
 8.12844  1268.65
 8.15177  1268.38
 8.17509  1268.41
 8.19841  1268.41
 8.22174  1267.97
 8.24506  1266.34
 8.26839  1266.04
 8.29171  1266.04
 8.31503  1265.35
 8.33836  1265.14
 8.36168  1265.44
 8.38501  1265.89
 8.40833  1265.02
 8.43166  1265.83
 8.45498  1265.82
 8.4783  1265.17
 8.50163  1265.78
 8.52495  1265.71
 8.54828  1264.37
 8.5716  1264.46
 8.59492  1265.5
 8.61825  1266.49
 8.64157  1267.39
 8.6649  1267.75
 8.68822  1269.48
 8.71154  1270.94
 8.73487  1271.81
 8.75819  1274.1
 8.78152  1280.63
 8.80484  1289.36
 8.82817  1299.1
 8.85149  1308.45
 8.87481  1308.97
 8.89814  1302.29
 8.92146  1294.66
 8.94479  1286.79
 8.96811  1280.48
 8.99143  1276.83
 9.01476  1275.5
 9.03808  1272.98
 9.06141  1282.58
 9.08473  1293.43
 9.10805  1294.21
 9.13138  1294.67
 9.1547  1299.6
 9.17803  1310.76
 9.20135  1330.79
 9.22467  1352.87
 9.248  1357.57
 9.27132  1339.68
 9.29465  1317.53
 9.31797  1307.96
 9.34129  1303.01
 9.36462  1300.88
 9.38794  1299.89
 9.41127  1298.3
 9.43459  1298.26
 9.45792  1298.21
 9.48124  1299.74
 9.50456  1302.81
 9.52789  1305.5
 9.55121  1336.49
 9.57454  1395.44
 9.59786  1440.37
 9.62118  1440.33
 9.64451  1418.53
 9.66783  1337.74
 9.69116  1303.35
 9.71448  1301.5
 9.7378  1301.38
 9.76113  1300.61
 9.78445  1301.1
 9.80778  1302.73
 9.8311  1305.5
 9.85442  1306.7
 9.87775  1305.54
 9.90107  1306.54
 9.9244  1308.75
 9.94772  1309.71
 9.97104  1311.48
 9.99437  1313.96
 10.0177  1317.33
 10.041  1322.78
 10.0643  1329.94
 10.0877  1337.21
 10.111  1342.45
 10.1343  1344.54
 10.1576  1345.06
 10.181  1346.26
 10.2043  1350.59
 10.2276  1351.95
 10.2509  1347.64
 10.2743  1341.08
 10.2976  1335.91
 10.3209  1331.89
 10.3442  1328.62
 10.3676  1324.54
 10.3909  1321.38
 10.4142  1322.66
 10.4375  1323.77
 10.4609  1324.02
 10.4842  1324.4
 10.5075  1324.5
 10.5308  1324.06
 10.5541  1325.03
 10.5775  1327.19
 10.6008  1329.12
 10.6241  1329.85
 10.6474  1334.93
 10.6708  1354.12
 10.6941  1376.89
 10.7174  1369.36
 10.7407  1345.88
 10.7641  1339.9
 10.7874  1344.85
 10.8107  1351.86
 10.834  1356
 10.8574  1353.14
 10.8807  1347.04
 10.904  1342.01
 10.9273  1343.18
 10.9507  1351.03
 10.974  1357.72
 10.9973  1363.94
 11.0206  1369.21
 11.044  1375.71
 11.0673  1382.37
 11.0906  1389.39
 11.1139  1400.79
 11.1372  1415.9
 11.1606  1443
 11.1839  1492.26
 11.2072  1587.24
 11.2305  1805.08
 11.2539  2217.79
 11.2772  2716.56
 11.3005  2919.88
 11.3238  2650.95
 11.3472  2172.36
 11.3705  1912.69
 11.3938  1658.17
 11.4171  1537.8
 11.4405  1497.02
 11.4638  1474.73
 11.4871  1457.61
 11.5104  1447.66
 11.5338  1440.36
 11.5571  1434.05
 11.5804  1431.09
 11.6037  1431.2
 11.6271  1431.32
 11.6504  1431.59
 11.6737  1431.21
 11.697  1432.68
 11.7204  1438.19
 11.7437  1443.51
 11.767  1449.88
 11.7903  1461.69
 11.8136  1477.71
 11.837  1498.89
 11.8603  1530.35
 11.8836  1561.1
 11.9069  1577.18
 11.9303  1581.19
 11.9536  1578.79
 11.9769  1566.76
 12.0002  1548.88
 12.0236  1529.29
 12.0469  1509.89
 12.0702  1488.57
 12.0935  1475.49
 12.1169  1470.81
 12.1402  1465.37
 12.1635  1464.28
 12.1868  1466.3
 12.2102  1467.58
 12.2335  1467.82
 12.2568  1468.79
 12.2801  1468.65
 12.3035  1469.97
 12.3268  1472.94
 12.3501  1476.31
 12.3734  1479.31
 12.3967  1481.73
 12.4201  1485.13
 12.4434  1491.17
 12.4667  1500.32
 12.49  1513.49
 12.5134  1529.96
 12.5367  1551.31
 12.56  1570.58
 12.5833  1580.49
 12.6067  1584.03
 12.63  1581.38
 12.6533  1570.86
 12.6766  1558.61
 12.7  1544.98
 12.7233  1537
 12.7466  1537.79
 12.7699  1538.45
 12.7933  1541.24
 12.8166  1544.86
 12.8399  1549.71
 12.8632  1559.56
 12.8866  1572.93
 12.9099  1597.36
 12.9332  1649.13
 12.9565  1736.59
 12.9799  1850.06
 13.0032  1912.07
 13.0265  2054.67
 13.0498  2232.34
 13.0731  2420.58
 13.0965  2468.58
 13.1198  2320.4
 13.1431  2029.58
 13.1664  1787.36
 13.1898  1640.96
 13.2131  1596.78
 13.2364  1580.71
 13.2597  1569.95
 13.2831  1564.72
 13.3064  1562.67
 13.3297  1561.55
 13.353  1561.39
 13.3764  1559.39
 13.3997  1560.52
 13.423  1565.98
 13.4463  1568.99
 13.4697  1572.82
 13.493  1575.9
 13.5163  1578.8
 13.5396  1582.42
 13.563  1582.29
 13.5863  1581.8
 13.6096  1580.42
 13.6329  1579
 13.6562  1577.83
 13.6796  1578.31
 13.7029  1580.57
 13.7262  1580.89
 13.7495  1580.96
 13.7729  1582.77
 13.7962  1585.5
 13.8195  1587.68
 13.8428  1588.71
 13.8662  1589.1
 13.8895  1592.2
 13.9128  1594.56
 13.9361  1595.76
 13.9595  1596.81
 13.9828  1596.99
 14.0061  1600.05
 14.0294  1604.41
 14.0528  1607.55
 14.0761  1611.17
 14.0994  1614.08
 14.1227  1617.57
 14.1461  1623.27
 14.1694  1626.22
 14.1927  1629.29
 14.216  1632.25
 14.2394  1632.68
 14.2627  1633.53
 14.286  1636.27
 14.3093  1637.49
 14.3326  1636
 14.356  1633.38
 14.3793  1635
 14.4026  1640.29
 14.4259  1642.19
 14.4493  1643.7
 14.4726  1650.42
 14.4959  1665.82
 14.5192  1686.89
 14.5426  1697.73
 14.5659  1698.7
 14.5892  1704.22
 14.6125  1702.7
 14.6359  1691.68
 14.6592  1681.84
 14.6825  1674.64
 14.7058  1671.14
 14.7292  1670.34
 14.7525  1670.48
 14.7758  1672.2
 14.7991  1673.92
 14.8225  1676.97
 14.8458  1678.9
 14.8691  1679.82
 14.8924  1680.6
 14.9158  1681.67
 14.9391  1685.04
 14.9624  1685.93
 14.9857  1688.74
 15.009  1690.99
 15.0324  1693.69
 15.0557  1695.58
 15.079  1695.5
 15.1023  1698.38
 15.1257  1699.74
 15.149  1701.54
 15.1723  1705.65
 15.1956  1706.83
 15.219  1708.71
 15.2423  1711.86
 15.2656  1714.65
 15.2889  1716.19
 15.3123  1716.13
 15.3356  1719.84
 15.3589  1722.72
 15.3822  1724.98
 15.4056  1729.84
 15.4289  1730.16
 15.4522  1734.03
 15.4755  1737.89
 15.4989  1739.59
 15.5222  1741.03
 15.5455  1741.58
 15.5688  1744.65
 15.5921  1747.36
 15.6155  1749.44
 15.6388  1753.11
 15.6621  1756.51
 15.6854  1759
 15.7088  1762.32
 15.7321  1766.06
 15.7554  1769.36
 15.7787  1772.99
 15.8021  1774.01
 15.8254  1778.2
 15.8487  1784.18
 15.872  1788.46
 15.8954  1792.75
 15.9187  1795.37
 15.942  1797.95
 15.9653  1801.34
 15.9887  1806.06
 16.012  1809.96
 16.0353  1814.45
 16.0586  1818.5
 16.082  1827.2
 16.1053  1834.01
 16.1286  1839.83
 16.1519  1844.87
 16.1753  1849.33
 16.1986  1849.97
 16.2219  1846.12
 16.2452  1842.28
 16.2685  1838.85
 16.2919  1833.19
 16.3152  1828.52
 16.3385  1827.41
 16.3618  1826.17
 16.3852  1826.13
 16.4085  1827.96
 16.4318  1829.26
 16.4551  1829.05
 16.4785  1830.47
 16.5018  1834.83
 16.5251  1836.38
 16.5484  1837.48
 16.5718  1839.7
 16.5951  1841.88
 16.6184  1844.21
 16.6417  1846.57
 16.6651  1847.13
 16.6884  1849.4
 16.7117  1850.91
 16.735  1853.13
 16.7584  1855.6
 16.7817  1858.07
 16.805  1861.42
 16.8283  1864.87
 16.8516  1868.39
 16.875  1869.95
 16.8983  1873.07
 16.9216  1877.71
 16.9449  1880.06
 16.9683  1882.38
 16.9916  1885.79
 17.0149  1887.67
 17.0382  1890.31
 17.0616  1893.36
 17.0849  1896.3
 17.1082  1897.45
 17.1315  1898.82
 17.1549  1899.62
 17.1782  1902.29
 17.2015  1906.59
 17.2248  1909.69
 17.2482  1911.7
 17.2715  1915.75
 17.2948  1919.1
 17.3181  1920.7
 17.3415  1923.6
 17.3648  1927.4
 17.3881  1931.94
 17.4114  1936.63
 17.4348  1941.85
 17.4581  1951.71
 17.4814  1959.76
 17.5047  1969.41
 17.528  1983.81
 17.5514  1999.14
 17.5747  2015.48
 17.598  2032.58
 17.6213  2049.76
 17.6447  2068.41
 17.668  2082.91
 17.6913  2084.34
 17.7146  2076.96
 17.738  2070.21
 17.7613  2066.21
 17.7846  2064.03
 17.8079  2063
 17.8313  2059.32
 17.8546  2051.56
 17.8779  2047.3
 17.9012  2046.75
 17.9246  2046.27
 17.9479  2042.77
 17.9712  2039.12
 17.9945  2038.43
 18.0179  2037.32
 18.0412  2034.3
 18.0645  2032.72
 18.0878  2034.79
 18.1111  2037.7
 18.1345  2039.17
 18.1578  2042.33
 18.1811  2045.7
 18.2044  2049.81
 18.2278  2056.97
 18.2511  2067.24
 18.2744  2080.14
 18.2977  2097.51
 18.3211  2119.24
 18.3444  2156.38
 18.3677  2502.91
 18.391  2984.36
 18.4144  3179.71
 18.4377  3226.74
 18.461  3264.51
 18.4843  3288.34
 18.5077  3236.34
 18.531  3197.5
 18.5543  3215.35
 18.5776  3007.87
 18.601  2594.52
 18.6243  2308.76
 18.6476  2211.22
 18.6709  2167.24
 18.6943  2140.31
 18.7176  2121.95
 18.7409  2110.4
 18.7642  2097.63
 18.7875  2089.27
 18.8109  2087.87
 18.8342  2085.02
 18.8575  2081.25
 18.8808  2082.29
 18.9042  2084.56
 18.9275  2086.57
 18.9508  2087.08
 18.9741  2087.21
 18.9975  2089.22
 19.0208  2090.27
 19.0441  2087.86
 19.0674  2084.25
 19.0908  2083.24
 19.1141  2084.35
 19.1374  2085.32
 19.1607  2087.02
 19.1841  2087.9
 19.2074  2086.7
 19.2307  2088.96
 19.254  2092.2
 19.2774  2092.08
 19.3007  2090.71
 19.324  2092.98
 19.3473  2094.74
 19.3706  2096.37
 19.394  2096.89
 19.4173  2099.26
 19.4406  2102.6
 19.4639  2104.43
 19.4873  2106.89
 19.5106  2108.98
 19.5339  2113.33
 19.5572  2120.22
 19.5806  2127.1
 19.6039  2129.99
 19.6272  2133.19
 19.6505  2136.97
 19.6739  2140.48
 19.6972  2140.32
 19.7205  2138.65
 19.7438  2137.35
 19.7672  2135.23
 19.7905  2135.77
 19.8138  2140.11
 19.8371  2141.54
 19.8605  2140.91
 19.8838  2140.96
 19.9071  2143.98
 19.9304  2144.9
 19.9538  2143.73
 19.9771  2143.28
 20.0004  2142.99
 20.0237  2142.77
 20.047  2146.58
 20.0704  2148.78
 20.0937  2148.85
 20.117  2150.53
 20.1403  2153.5
 20.1637  2154.87
 20.187  2155.84
 20.2103  2156.76
 20.2336  2158.33
 20.257  2162.89
 20.2803  2165.07
 20.3036  2166.21
 20.3269  2166.01
 20.3503  2167.69
 20.3736  2172.31
 20.3969  2176.38
 20.4202  2178.81
 20.4436  2180.19
 20.4669  2181.02
 20.4902  2184.18
 20.5135  2187.3
 20.5369  2189.62
 20.5602  2199.85
 20.5835  2216.36
 20.6068  2227.77
 20.6302  2224.43
 20.6535  2212.13
 20.6768  2208.91
 20.7001  2214.99
 20.7234  2223.18
 20.7468  2226.21
 20.7701  2220.27
 20.7934  2213.81
 20.8167  2208.88
 20.8401  2205.38
 20.8634  2205.47
 20.8867  2206.05
 20.91  2207.3
 20.9334  2209.16
 20.9567  2211.09
 20.98  2211.89
 21.0033  2213.13
 21.0267  2213.18
 21.05  2216.97
 21.0733  2219.99
 21.0966  2223.34
 21.12  2228.28
 21.1433  2232.76
 21.1666  2237.7
 21.1899  2243.12
 21.2133  2246.47
 21.2366  2248.6
 21.2599  2252.05
 21.2832  2255.23
 21.3065  2261.15
 21.3299  2268.28
 21.3532  2278.15
 21.3765  2289.31
 21.3998  2301.39
 21.4232  2319.88
 21.4465  2339.14
 21.4698  2357.76
 21.4931  2382.87
 21.5165  2436.62
 21.5398  2621.23
 21.5631  2797.9
 21.5864  2912.07
 21.6098  2930.17
 21.6331  3012.65
 21.6564  3046.27
 21.6797  3116.4
 21.7031  3131.86
 21.7264  3026.18
 21.7497  2928.76
 21.773  2881.1
 21.7964  2806.81
 21.8197  2741.91
 21.843  2636.88
 21.8663  2523.29
 21.8896  2433.39
 21.913  2378.47
 21.9363  2343.19
 21.9596  2320.75
 21.9829  2308.08
 22.0063  2298.47
 22.0296  2290.81
 22.0529  2285.62
 22.0762  2283.76
 22.0996  2281.88
 22.1229  2278.81
 22.1462  2280.34
 22.1695  2282.61
 22.1929  2282.48
 22.2162  2281.28
 22.2395  2281.25
 22.2628  2283.42
 22.2862  2284.8
 22.3095  2286.25
 22.3328  2289.01
 22.3561  2290.16
 22.3795  2291.41
 22.4028  2293.9
 22.4261  2297.32
 22.4494  2298.65
 22.4728  2301.23
 22.4961  2306.87
 22.5194  2311.55
 22.5427  2321.26
 22.5661  2330.96
 22.5894  2350.84
 22.6127  2391.34
 22.636  2546.58
 22.6593  2728.89
 22.6827  2779.87
 22.706  2673.46
 22.7293  2523.45
 22.7526  2421.82
 22.776  2365.54
 22.7993  2339.08
 22.8226  2325.38
 22.8459  2314.94
 22.8693  2311.06
 22.8926  2306.19
 22.9159  2303.91
 22.9392  2302.94
 22.9626  2303.08
 22.9859  2301.65
 23.0092  2300.36
 23.0325  2300.84
 23.0559  2297.85
 23.0792  2296.1
 23.1025  2294.79
 23.1258  2295.41
 23.1492  2295.52
 23.1725  2294.83
 23.1958  2295.58
 23.2191  2295.11
 23.2424  2295.04
 23.2658  2296.05
 23.2891  2296.32
 23.3124  2294.56
 23.3357  2294.6
 23.3591  2296.29
 23.3824  2280.85
 23.4057  2200.27
 23.429  2066.44
 23.4524  1967.38
 23.4757  1898.55
 23.499  1880.66
 23.5223  1893.61
 23.5457  1904.72
 23.569  1904.19
 23.5923  1881.22
 23.6156  1839.6
 23.639  1788.58
 23.6623  1737.82
 23.6856  1697.56
 23.7089  1658.77
 23.7323  1624.56
 23.7556  1596.76
 23.7789  1587.94
 23.8022  1599.24
 23.8255  1616.27
 23.8489  1630.52
 23.8722  1645.79
 23.8955  1661.85
 23.9188  1678.44
 23.9422  1695.33
 23.9655  1711.84
 23.9888  1727.56
 24.0121  1744.35
 24.0355  1760.52
 24.0588  1777.26
 24.0821  1790.35
 24.1054  1805.39
 24.1288  1822.8
 24.1521  1841.64
 24.1754  1857.47
 24.1987  1876.48
 24.2221  1894.58
 24.2454  1906.32
 24.2687  1916.91
 24.292  1932.12
 24.3154  1951.12
 24.3387  1969.15
 24.362  1999.67
 24.3853  2036.93
 24.4087  2078.18
 24.432  2094.17
 24.4553  2098.45
 24.4786  2095.86
 24.5019  2096.68
 24.5253  2105.31
 24.5486  2119.9
 24.5719  2130.94
 24.5952  2141.45
 24.6186  2157.32
 24.6419  2166.88
 24.6652  2126.44
 24.6885  2048.06
 24.7119  1967.34
 24.7352  1875.63
 24.7585  1766.67
 24.7818  1665.94
 24.8052  1507.23
 24.8285  1279.96
 24.8518  1217.04
 24.8751  1211.42
 24.8985  1131.44
 24.9218  966.182
 24.9451  705.83
 24.9684  370.523
 24.9918  77.8723
 25.0151  1.70194
 25.0384  0.0000000E+00
 25.0617  0.0000000E+00
 25.0851  0.0000000E+00
 25.1084  0.0000000E+00
 25.1317  0.0000000E+00
 25.155  0.0000000E+00
 25.1783  0.0000000E+00
 25.2017  0.0000000E+00
 25.225  0.0000000E+00
 25.2483  0.0000000E+00
 25.2716  0.0000000E+00
 25.295  0.0000000E+00
 25.3183  0.0000000E+00
 25.3416  0.0000000E+00
 25.3649  0.0000000E+00
 25.3883  0.0000000E+00
 25.4116  0.0000000E+00
 25.4349  0.0000000E+00
 25.4582  0.0000000E+00
 25.4816  0.0000000E+00
 25.5049  0.0000000E+00
 25.5282  0.0000000E+00
 25.5515  0.0000000E+00
 25.5749  0.0000000E+00
 25.5982  0.0000000E+00
 25.6215  0.0000000E+00
 25.6448  0.0000000E+00
 25.6682  0.0000000E+00
 25.6915  0.0000000E+00
 25.7148  0.0000000E+00
 25.7381  0.0000000E+00
 25.7614  0.0000000E+00
 25.7848  0.0000000E+00
 25.8081  0.0000000E+00
 25.8314  0.0000000E+00
 25.8547  0.0000000E+00
 25.8781  0.0000000E+00
 25.9014  0.0000000E+00
 25.9247  0.0000000E+00
 25.948  0.0000000E+00
 25.9714  0.0000000E+00
 25.9947  0.0000000E+00
 26.018  0.0000000E+00
 26.0413  0.0000000E+00
 26.0647  0.0000000E+00
 26.088  0.0000000E+00
 26.1113  0.0000000E+00
 26.1346  0.0000000E+00
 26.158  0.0000000E+00
 26.1813  0.0000000E+00
 26.2046  0.0000000E+00
 26.2279  0.0000000E+00
 26.2513  0.0000000E+00
 26.2746  0.0000000E+00
 26.2979  0.0000000E+00
 26.3212  0.0000000E+00
 26.3446  0.0000000E+00
 26.3679  0.0000000E+00
 26.3912  0.0000000E+00
 26.4145  0.0000000E+00
 26.4378  0.0000000E+00
 26.4612  0.0000000E+00
 26.4845  0.0000000E+00
 26.5078  0.0000000E+00
 26.5311  0.0000000E+00