File: BA_16.chi
D:\DATA\UserData\CuiTian20190403\CWH\BA\BA_16.tif: 2-theta Scan
2-Theta Angle (Degrees)
Intensity
       1481
 0.0110541  40.0365
 0.0331622  39.7003
 0.0552703  41.7704
 0.0773785  41.94
 0.0994866  40.3711
 0.121595  41.1719
 0.143703  42.0737
 0.165811  42.2722
 0.187919  42.3648
 0.210027  42.4228
 0.232135  42.3232
 0.254244  42.0621
 0.276352  41.9932
 0.29846  41.0676
 0.320568  41.5413
 0.342676  41.1815
 0.364784  40.9911
 0.386892  40.9595
 0.409  41.4749
 0.431109  42.6142
 0.453217  41.6038
 0.475325  41.3493
 0.497433  41.787
 0.519541  41.4745
 0.541649  41.2924
 0.563757  41.7305
 0.585866  41.8452
 0.607974  41.5601
 0.630082  41.8789
 0.65219  41.4299
 0.674298  41.2034
 0.696406  41.3962
 0.718514  41.6129
 0.740622  41.7153
 0.762731  41.8677
 0.784839  41.7404
 0.806947  41.4262
 0.829055  40.9274
 0.851163  41.3658
 0.873271  42.233
 0.895379  42.8158
 0.917488  42.5548
 0.939596  42.4055
 0.961704  42.9439
 0.983812  43.5361
 1.00592  43.559
 1.02803  43.1651
 1.05014  42.9012
 1.07224  42.3971
 1.09435  42.5028
 1.11646  42.8797
 1.13857  43.0279
 1.16068  42.9673
 1.18279  42.85
 1.20489  42.9239
 1.227  43.0531
 1.24911  43.9418
 1.27122  44.668
 1.29333  44.2585
 1.31543  43.955
 1.33754  43.3258
 1.35965  43.4804
 1.38176  44.2984
 1.40387  44.4945
 1.42597  44.7292
 1.44808  44.9424
 1.47019  44.9173
 1.4923  44.8157
 1.51441  44.4282
 1.53652  44.218
 1.55862  44.5835
 1.58073  45.271
 1.60284  45.7819
 1.62495  45.8963
 1.64706  46.0324
 1.66916  46.4718
 1.69127  47.0095
 1.71338  47.8934
 1.73549  48.1933
 1.7576  48.5007
 1.7797  49.2957
 1.80181  50.3469
 1.82392  51.5759
 1.84603  53.8821
 1.86814  57.2138
 1.89025  64.96
 1.91235  81.7633
 1.93446  110.638
 1.95657  147.096
 1.97868  185.64
 2.00079  224.118
 2.02289  259.969
 2.045  294.586
 2.06711  330.098
 2.08922  371.859
 2.11133  418.983
 2.13343  470.001
 2.15554  525.84
 2.17765  582.284
 2.19976  627.738
 2.22187  665.73
 2.24398  699.405
 2.26608  731.261
 2.28819  764.753
 2.3103  795.372
 2.33241  825.421
 2.35452  852.445
 2.37662  880.436
 2.39873  911.327
 2.42084  938.118
 2.44295  962.315
 2.46506  985.032
 2.48717  1012.58
 2.50927  1033.54
 2.53138  1054.23
 2.55349  1077.49
 2.5756  1102.42
 2.59771  1123.13
 2.61981  1142.21
 2.64192  1162.9
 2.66403  1183.48
 2.68614  1201.87
 2.70825  1220.58
 2.73035  1239.88
 2.75246  1259.47
 2.77457  1277.12
 2.79668  1293.44
 2.81879  1310.88
 2.8409  1330.29
 2.863  1347.73
 2.88511  1363.81
 2.90722  1381.65
 2.92933  1397.44
 2.95144  1411.97
 2.97354  1429.86
 2.99565  1446.73
 3.01776  1459.47
 3.03987  1469.35
 3.06198  1480.63
 3.08408  1492.19
 3.10619  1503.25
 3.1283  1513.68
 3.15041  1528.03
 3.17252  1541.51
 3.19463  1553.66
 3.21673  1564.16
 3.23884  1573.15
 3.26095  1581.74
 3.28306  1589.89
 3.30517  1601.17
 3.32727  1610.78
 3.34938  1620.65
 3.37149  1630.87
 3.3936  1640.14
 3.41571  1647.06
 3.43781  1655.23
 3.45992  1665.69
 3.48203  1675.37
 3.50414  1686.05
 3.52625  1695.28
 3.54836  1704.35
 3.57046  1711.26
 3.59257  1720.41
 3.61468  1728.81
 3.63679  1734.85
 3.6589  1742.42
 3.681  1749.55
 3.70311  1754.43
 3.72522  1759.14
 3.74733  1762.39
 3.76944  1767.32
 3.79154  1771.82
 3.81365  1777.94
 3.83576  1785.25
 3.85787  1792.12
 3.87998  1796.49
 3.90209  1801.35
 3.92419  1808.23
 3.9463  1813.46
 3.96841  1816.32
 3.99052  1821.37
 4.01263  1826.57
 4.03473  1830.44
 4.05684  1835.36
 4.07895  1840.43
 4.10106  1842.87
 4.12317  1846.17
 4.14528  1850.93
 4.16738  1854.38
 4.18949  1857.3
 4.2116  1862.01
 4.23371  1864.26
 4.25582  1865.93
 4.27792  1867.6
 4.30003  1872.13
 4.32214  1877.71
 4.34425  1881.16
 4.36636  1880.94
 4.38846  1882.3
 4.41057  1887.37
 4.43268  1890.64
 4.45479  1892.93
 4.4769  1894.56
 4.499  1893.45
 4.52111  1893.64
 4.54322  1898.69
 4.56533  1902.75
 4.58744  1901.68
 4.60955  1902.06
 4.63165  1904.03
 4.65376  1905.44
 4.67587  1906.56
 4.69798  1910.59
 4.72009  1911.32
 4.74219  1910.52
 4.7643  1911.94
 4.78641  1910.65
 4.80852  1910.41
 4.83063  1914.23
 4.85274  1914.92
 4.87484  1916.34
 4.89695  1918.11
 4.91906  1917.01
 4.94117  1916.74
 4.96328  1916.86
 4.98538  1918.55
 5.00749  1917.36
 5.0296  1917.91
 5.05171  1920.08
 5.07382  1921.39
 5.09592  1919.4
 5.11803  1918.32
 5.14014  1919.86
 5.16225  1919.61
 5.18436  1920.3
 5.20647  1922.54
 5.22857  1921.05
 5.25068  1921.26
 5.27279  1919.4
 5.2949  1919.78
 5.31701  1921.75
 5.33911  1921.61
 5.36122  1919.12
 5.38333  1916.92
 5.40544  1917.52
 5.42755  1917.39
 5.44965  1916.64
 5.47176  1917.09
 5.49387  1916.99
 5.51598  1915.26
 5.53809  1914.74
 5.5602  1914.43
 5.5823  1914.13
 5.60441  1913.28
 5.62652  1913.02
 5.64863  1910.6
 5.67074  1909.26
 5.69284  1911.99
 5.71495  1912.57
 5.73706  1910.76
 5.75917  1909.11
 5.78128  1911.39
 5.80338  1910.7
 5.82549  1910.31
 5.8476  1912.54
 5.86971  1912.58
 5.89182  1908.72
 5.91393  1906.65
 5.93603  1906.02
 5.95814  1904.01
 5.98025  1904.15
 6.00236  1905.53
 6.02447  1908.32
 6.04657  1907.72
 6.06868  1906.28
 6.09079  1904.96
 6.1129  1903.42
 6.13501  1901.33
 6.15712  1901.31
 6.17922  1902.88
 6.20133  1904.14
 6.22344  1904.2
 6.24555  1904.52
 6.26766  1903.13
 6.28976  1903.33
 6.31187  1900.58
 6.33398  1899.51
 6.35609  1900.24
 6.3782  1902.28
 6.4003  1901.88
 6.42241  1900.02
 6.44452  1898.37
 6.46663  1895.26
 6.48874  1894.72
 6.51085  1895.63
 6.53295  1894.46
 6.55506  1892.91
 6.57717  1892.83
 6.59928  1891.31
 6.62139  1891.67
 6.64349  1891.28
 6.6656  1891.04
 6.68771  1891.75
 6.70982  1890.52
 6.73193  1887.15
 6.75403  1885.9
 6.77614  1885.58
 6.79825  1886.17
 6.82036  1887.34
 6.84247  1884.56
 6.86458  1879.69
 6.88668  1879.31
 6.90879  1880.93
 6.9309  1881.34
 6.95301  1881.29
 6.97512  1881.91
 6.99722  1882.06
 7.01933  1883.25
 7.04144  1882.23
 7.06355  1881.65
 7.08566  1880.28
 7.10776  1875.95
 7.12987  1873.3
 7.15198  1875.77
 7.17409  1876.86
 7.1962  1877.23
 7.21831  1874.52
 7.24041  1872.97
 7.26252  1871.47
 7.28463  1870.67
 7.30674  1871.29
 7.32885  1870.41
 7.35095  1870.23
 7.37306  1871.23
 7.39517  1871.56
 7.41728  1869.67
 7.43939  1869.52
 7.46149  1866.74
 7.4836  1864.75
 7.50571  1866.04
 7.52782  1866.92
 7.54993  1865.48
 7.57204  1866.47
 7.59414  1867.28
 7.61625  1865.07
 7.63836  1863.18
 7.66047  1862.42
 7.68258  1862.63
 7.70468  1862.21
 7.72679  1861.38
 7.7489  1860.64
 7.77101  1860.49
 7.79312  1859.13
 7.81523  1859.93
 7.83733  1859.53
 7.85944  1859.76
 7.88155  1861.05
 7.90366  1862.91
 7.92577  1862.61
 7.94787  1862.56
 7.96998  1862.32
 7.99209  1861.44
 8.0142  1863.55
 8.03631  1866.26
 8.05841  1867.27
 8.08052  1868.43
 8.10263  1868.33
 8.12474  1869.52
 8.14685  1871.86
 8.16895  1874.92
 8.19106  1878.62
 8.21317  1881.23
 8.23528  1880.83
 8.25739  1880.88
 8.2795  1880.74
 8.3016  1877.73
 8.32371  1874.65
 8.34582  1871.99
 8.36793  1867.87
 8.39004  1866.04
 8.41214  1864.15
 8.43425  1862.7
 8.45636  1862.56
 8.47847  1862
 8.50058  1861.76
 8.52269  1861.43
 8.54479  1861.96
 8.5669  1863.75
 8.58901  1865.8
 8.61112  1866.57
 8.63323  1866.29
 8.65533  1867.96
 8.67744  1868.28
 8.69955  1867.77
 8.72166  1867.56
 8.74377  1868.53
 8.76587  1867.7
 8.78798  1865.79
 8.81009  1864.85
 8.8322  1864.74
 8.85431  1865.51
 8.87642  1864.67
 8.89852  1861.23
 8.92063  1859.42
 8.94274  1859.31
 8.96485  1860.09
 8.98696  1860.78
 9.00906  1860.74
 9.03117  1860.25
 9.05328  1859.44
 9.07539  1859.07
 9.0975  1859.9
 9.11961  1861.46
 9.14171  1863.28
 9.16382  1864.21
 9.18593  1863.73
 9.20804  1865.29
 9.23015  1866.7
 9.25225  1867.11
 9.27436  1868.71
 9.29647  1869.72
 9.31858  1869.44
 9.34069  1871.18
 9.36279  1873.85
 9.3849  1877.08
 9.40701  1879.88
 9.42912  1882.12
 9.45123  1882.09
 9.47334  1884.53
 9.49544  1887.46
 9.51755  1888.18
 9.53966  1887.51
 9.56177  1886.08
 9.58388  1886.91
 9.60598  1886.14
 9.62809  1884.32
 9.6502  1883.9
 9.67231  1884.65
 9.69442  1885.71
 9.71652  1889.53
 9.73863  1892.91
 9.76074  1893.2
 9.78285  1895.4
 9.80496  1900.35
 9.82707  1904.74
 9.84917  1906.04
 9.87128  1906.45
 9.89339  1907.29
 9.9155  1907.17
 9.93761  1908.16
 9.95971  1907.47
 9.98182  1906.58
 10.0039  1907.59
 10.026  1910.01
 10.0481  1912.29
 10.0703  1913.86
 10.0924  1915.58
 10.1145  1918.74
 10.1366  1921.54
 10.1587  1925.08
 10.1808  1931.83
 10.2029  1939.34
 10.225  1948.25
 10.2471  1957.5
 10.2692  1967.27
 10.2913  1980.32
 10.3134  1993.6
 10.3356  2006.83
 10.3577  2022.78
 10.3798  2040.02
 10.4019  2057.57
 10.424  2074.79
 10.4461  2094.69
 10.4682  2113.58
 10.4903  2127.04
 10.5124  2131.09
 10.5345  2127.81
 10.5566  2119.78
 10.5787  2108.86
 10.6008  2099.47
 10.623  2093.04
 10.6451  2087.37
 10.6672  2075.27
 10.6893  2059.83
 10.7114  2042.65
 10.7335  2025.09
 10.7556  2012.03
 10.7777  2003.22
 10.7998  1994.4
 10.8219  1985.77
 10.844  1979.23
 10.8661  1975.62
 10.8883  1973.86
 10.9104  1973.53
 10.9325  1974.12
 10.9546  1974.79
 10.9767  1976.82
 10.9988  1978.29
 11.0209  1980.37
 11.043  1984.48
 11.0651  1987.84
 11.0872  1990.28
 11.1093  1993.3
 11.1314  1994.81
 11.1536  1993.51
 11.1757  1991.01
 11.1978  1990.8
 11.2199  1991.97
 11.242  1991.45
 11.2641  1993.91
 11.2862  1997.57
 11.3083  2000.33
 11.3304  2005.64
 11.3525  2008.94
 11.3746  2012.33
 11.3967  2019.13
 11.4189  2027.09
 11.441  2032.24
 11.4631  2034
 11.4852  2034.82
 11.5073  2034.16
 11.5294  2034.43
 11.5515  2035.82
 11.5736  2038.47
 11.5957  2040.41
 11.6178  2034.42
 11.6399  2024.38
 11.662  2017.17
 11.6841  2010.59
 11.7063  2005.28
 11.7284  1999.57
 11.7505  1996.4
 11.7726  1992.49
 11.7947  1989.78
 11.8168  1988.13
 11.8389  1988.06
 11.861  1989.92
 11.8831  1990.86
 11.9052  1993.19
 11.9273  1996.92
 11.9494  2000.24
 11.9716  2004.81
 11.9937  2010.86
 12.0158  2017.95
 12.0379  2028.37
 12.06  2039.79
 12.0821  2050.61
 12.1042  2064.92
 12.1263  2080.18
 12.1484  2091.84
 12.1705  2101.78
 12.1926  2109.5
 12.2147  2112.21
 12.2369  2110.29
 12.259  2102.22
 12.2811  2090.79
 12.3032  2078.75
 12.3253  2065.27
 12.3474  2051.78
 12.3695  2038.54
 12.3916  2028.34
 12.4137  2018.18
 12.4358  2010.96
 12.4579  2004.8
 12.48  2001.23
 12.5021  1996.19
 12.5243  1991.57
 12.5464  1988.16
 12.5685  1984.29
 12.5906  1978.97
 12.6127  1974.53
 12.6348  1970.18
 12.6569  1968
 12.679  1966.59
 12.7011  1965.11
 12.7232  1963.64
 12.7453  1960.59
 12.7674  1956.45
 12.7896  1955.65
 12.8117  1955.78
 12.8338  1956.4
 12.8559  1954.77
 12.878  1952.68
 12.9001  1951.51
 12.9222  1951.2
 12.9443  1950.49
 12.9664  1949.15
 12.9885  1948.63
 13.0106  1948.68
 13.0327  1948.48
 13.0549  1946.52
 13.077  1946.44
 13.0991  1947.09
 13.1212  1946.92
 13.1433  1945.44
 13.1654  1945.31
 13.1875  1945.2
 13.2096  1945.9
 13.2317  1946.11
 13.2538  1946.71
 13.2759  1947.64
 13.298  1947.67
 13.3201  1947.87
 13.3423  1948.59
 13.3644  1947.37
 13.3865  1948.64
 13.4086  1948.97
 13.4307  1949.99
 13.4528  1950.75
 13.4749  1952.51
 13.497  1954.06
 13.5191  1954.42
 13.5412  1955.09
 13.5633  1956.73
 13.5854  1957.21
 13.6076  1958.73
 13.6297  1958.73
 13.6518  1958.68
 13.6739  1958.49
 13.696  1958.95
 13.7181  1959.57
 13.7402  1959.86
 13.7623  1958.9
 13.7844  1958.15
 13.8065  1959.08
 13.8286  1961.43
 13.8507  1962.55
 13.8729  1962.57
 13.895  1962.05
 13.9171  1962.95
 13.9392  1964.8
 13.9613  1966.49
 13.9834  1966.45
 14.0055  1966.66
 14.0276  1965.57
 14.0497  1964.74
 14.0718  1966.36
 14.0939  1966.24
 14.116  1965.95
 14.1382  1967.25
 14.1603  1967
 14.1824  1967.75
 14.2045  1968.76
 14.2266  1968.95
 14.2487  1969.44
 14.2708  1969.83
 14.2929  1969.48
 14.315  1969.67
 14.3371  1971.18
 14.3592  1971.62
 14.3813  1971.88
 14.4034  1972.31
 14.4256  1972.6
 14.4477  1973.99
 14.4698  1974.89
 14.4919  1975.75
 14.514  1976.55
 14.5361  1977.82
 14.5582  1977.88
 14.5803  1977.59
 14.6024  1979.63
 14.6245  1978.96
 14.6466  1978.83
 14.6687  1980.55
 14.6909  1982.81
 14.713  1983.82
 14.7351  1984.83
 14.7572  1985.37
 14.7793  1985.6
 14.8014  1987.58
 14.8235  1988.59
 14.8456  1989.6
 14.8677  1990.39
 14.8898  1991
 14.9119  1993.68
 14.934  1996.07
 14.9562  1999.08
 14.9783  2000.47
 15.0004  2000.23
 15.0225  2001.24
 15.0446  2002.08
 15.0667  2003.51
 15.0888  2004.87
 15.1109  2004.33
 15.133  2003.69
 15.1551  2002.95
 15.1772  2003.28
 15.1993  2002.21
 15.2215  2002.06
 15.2436  2001.99
 15.2657  2001.99
 15.2878  2002.78
 15.3099  2003.01
 15.332  2002.23
 15.3541  2001
 15.3762  2001.58
 15.3983  2001.68
 15.4204  2002.46
 15.4425  2002.86
 15.4646  2003.97
 15.4867  2005.24
 15.5089  2006.18
 15.531  2005.8
 15.5531  2006.46
 15.5752  2008.8
 15.5973  2008.7
 15.6194  2009.4
 15.6415  2009.04
 15.6636  2009.79
 15.6857  2011.85
 15.7078  2011.18
 15.7299  2011.09
 15.752  2012.19
 15.7742  2012.47
 15.7963  2013.27
 15.8184  2014.66
 15.8405  2013.98
 15.8626  2013.91
 15.8847  2014.47
 15.9068  2014.67
 15.9289  2016.77
 15.951  2017.79
 15.9731  2016.71
 15.9952  2017.3
 16.0173  2017.31
 16.0394  2017.32
 16.0616  2017.35
 16.0837  2016.15
 16.1058  2015.7
 16.1279  2016.36
 16.15  2015.66
 16.1721  2015.46
 16.1942  2015.23
 16.2163  2014.99
 16.2384  2017.68
 16.2605  2015.57
 16.2826  2012.84
 16.3047  2012.98
 16.3269  2014.23
 16.349  2014.33
 16.3711  2014.89
 16.3932  2015.51
 16.4153  2016.8
 16.4374  2015.47
 16.4595  2014.82
 16.4816  2018.04
 16.5037  2020.51
 16.5258  2019.89
 16.5479  2020.29
 16.57  2022.48
 16.5922  2022.88
 16.6143  2024.52
 16.6364  2026.99
 16.6585  2031.07
 16.6806  2037.27
 16.7027  2045.48
 16.7248  2057.26
 16.7469  2069.98
 16.769  2083.2
 16.7911  2097.38
 16.8132  2108.01
 16.8353  2111.98
 16.8575  2107.54
 16.8796  2096.61
 16.9017  2085.01
 16.9238  2073.03
 16.9459  2061.38
 16.968  2050.49
 16.9901  2042.46
 17.0122  2038.34
 17.0343  2038.2
 17.0564  2037.7
 17.0785  2038.72
 17.1006  2040.83
 17.1227  2043.3
 17.1449  2046.86
 17.167  2048.73
 17.1891  2049.94
 17.2112  2050.62
 17.2333  2048.88
 17.2554  2046.44
 17.2775  2043.78
 17.2996  2039.76
 17.3217  2036.35
 17.3438  2031.47
 17.3659  2027.45
 17.388  2023.06
 17.4102  2018.23
 17.4323  2013.34
 17.4544  2009.61
 17.4765  2006.59
 17.4986  2005.62
 17.5207  2003.74
 17.5428  2001.32
 17.5649  2000.13
 17.587  1997.9
 17.6091  1994.48
 17.6312  1991.88
 17.6533  1989.9
 17.6755  1988.09
 17.6976  1986.62
 17.7197  1983.34
 17.7418  1980.77
 17.7639  1978.75
 17.786  1976.84
 17.8081  1974.98
 17.8302  1973.54
 17.8523  1972.08
 17.8744  1972.67
 17.8965  1971.75
 17.9186  1969.73
 17.9408  1968.49
 17.9629  1966.65
 17.985  1964.17
 18.0071  1962.3
 18.0292  1960.87
 18.0513  1958.35
 18.0734  1955.21
 18.0955  1951.6
 18.1176  1949.41
 18.1397  1947.45
 18.1618  1945.02
 18.1839  1942.88
 18.206  1940.37
 18.2282  1938.79
 18.2503  1937.62
 18.2724  1935.42
 18.2945  1933.34
 18.3166  1932.1
 18.3387  1930.57
 18.3608  1926.59
 18.3829  1923.33
 18.405  1922.32
 18.4271  1922.13
 18.4492  1920.94
 18.4713  1917.45
 18.4935  1914.92
 18.5156  1914.53
 18.5377  1913.17
 18.5598  1910.91
 18.5819  1908.33
 18.604  1906.1
 18.6261  1903.83
 18.6482  1901.78
 18.6703  1899.92
 18.6924  1898.24
 18.7145  1895.16
 18.7366  1893.56
 18.7588  1890.16
 18.7809  1887.48
 18.803  1886.38
 18.8251  1885.78
 18.8472  1883.51
 18.8693  1880.26
 18.8914  1877.56
 18.9135  1876.15
 18.9356  1874.47
 18.9577  1873.19
 18.9798  1870.62
 19.0019  1870.17
 19.024  1870.06
 19.0462  1867.95
 19.0683  1864.04
 19.0904  1860.94
 19.1125  1858.93
 19.1346  1856.59
 19.1567  1854.17
 19.1788  1853.68
 19.2009  1851.07
 19.223  1849.31
 19.2451  1847.47
 19.2672  1846.18
 19.2893  1844.09
 19.3115  1842.83
 19.3336  1842.02
 19.3557  1840.48
 19.3778  1839.45
 19.3999  1837.03
 19.422  1835.82
 19.4441  1834.37
 19.4662  1832.52
 19.4883  1831.41
 19.5104  1828.39
 19.5325  1826.73
 19.5546  1825.73
 19.5768  1824.7
 19.5989  1823.96
 19.621  1821.89
 19.6431  1819.59
 19.6652  1818.31
 19.6873  1817.49
 19.7094  1817.55
 19.7315  1816.95
 19.7536  1815.09
 19.7757  1813.83
 19.7978  1813.33
 19.8199  1812.75
 19.842  1811.68
 19.8642  1811.62
 19.8863  1811.59
 19.9084  1811.16
 19.9305  1811.18
 19.9526  1811.42
 19.9747  1812.53
 19.9968  1813.85
 20.0189  1815
 20.041  1816.28
 20.0631  1817.8
 20.0852  1818.44
 20.1073  1819.41
 20.1295  1820.85
 20.1516  1821.22
 20.1737  1821.7
 20.1958  1820.21
 20.2179  1818.51
 20.24  1817.09
 20.2621  1815.7
 20.2842  1814.76
 20.3063  1812.14
 20.3284  1809.11
 20.3505  1806.08
 20.3726  1802.91
 20.3948  1798.61
 20.4169  1795.39
 20.439  1792.63
 20.4611  1790.1
 20.4832  1787.18
 20.5053  1783.94
 20.5274  1781.22
 20.5495  1778.3
 20.5716  1775.08
 20.5937  1771.23
 20.6158  1767.31
 20.6379  1763.88
 20.66  1760.82
 20.6822  1757.69
 20.7043  1753.83
 20.7264  1751.01
 20.7485  1747.49
 20.7706  1744.94
 20.7927  1743.39
 20.8148  1740.99
 20.8369  1739.62
 20.859  1737.44
 20.8811  1734.25
 20.9032  1732.68
 20.9253  1731.09
 20.9475  1728.67
 20.9696  1725.73
 20.9917  1724.74
 21.0138  1723.49
 21.0359  1721.58
 21.058  1720.19
 21.0801  1718.74
 21.1022  1717.1
 21.1243  1715.25
 21.1464  1714.55
 21.1685  1712
 21.1906  1706.9
 21.2128  1705.64
 21.2349  1706.1
 21.257  1703.96
 21.2791  1700.2
 21.3012  1698.81
 21.3233  1695.32
 21.3454  1692.18
 21.3675  1690.95
 21.3896  1689.62
 21.4117  1687.29
 21.4338  1686.19
 21.4559  1684.47
 21.478  1682.06
 21.5002  1680.25
 21.5223  1678.44
 21.5444  1675.93
 21.5665  1673.23
 21.5886  1670.99
 21.6107  1669.53
 21.6328  1668.28
 21.6549  1665.77
 21.677  1661.85
 21.6991  1660.78
 21.7212  1659.14
 21.7433  1656.12
 21.7655  1654.22
 21.7876  1653.63
 21.8097  1652.15
 21.8318  1649.16
 21.8539  1647.46
 21.876  1646.26
 21.8981  1643.79
 21.9202  1643.14
 21.9423  1642.34
 21.9644  1639.59
 21.9865  1638.43
 22.0086  1637.64
 22.0308  1636.06
 22.0529  1633.37
 22.075  1631.88
 22.0971  1630.93
 22.1192  1629.62
 22.1413  1628
 22.1634  1626.08
 22.1855  1623.52
 22.2076  1621.96
 22.2297  1621.82
 22.2518  1620.06
 22.2739  1618.94
 22.2961  1616.88
 22.3182  1615.47
 22.3403  1613.75
 22.3624  1612.74
 22.3845  1612.49
 22.4066  1611.45
 22.4287  1609.1
 22.4508  1608.28
 22.4729  1605.6
 22.495  1604.16
 22.5171  1603.54
 22.5392  1602.2
 22.5614  1601.03
 22.5835  1599.42
 22.6056  1597.37
 22.6277  1595.35
 22.6498  1594.32
 22.6719  1592.34
 22.694  1591.42
 22.7161  1590.89
 22.7382  1589.63
 22.7603  1587.92
 22.7824  1586.09
 22.8045  1585.76
 22.8266  1585.62
 22.8488  1582.68
 22.8709  1581.44
 22.893  1580.4
 22.9151  1578.66
 22.9372  1576.76
 22.9593  1576.17
 22.9814  1572.6
 23.0035  1572.19
 23.0256  1571.4
 23.0477  1568.89
 23.0698  1567.55
 23.0919  1565.94
 23.1141  1562.64
 23.1362  1534.32
 23.1583  1445.16
 23.1804  1360.73
 23.2025  1301.42
 23.2246  1266.89
 23.2467  1233.55
 23.2688  1197.01
 23.2909  1161.87
 23.313  1152.78
 23.3351  1135.08
 23.3572  1115.89
 23.3794  1096.14
 23.4015  1080.19
 23.4236  1061.19
 23.4457  1044.17
 23.4678  1029.17
 23.4899  1015.09
 23.512  1003.28
 23.5341  1003.18
 23.5562  997.196
 23.5783  992.648
 23.6004  985.49
 23.6225  980.044
 23.6446  971.235
 23.6668  965.109
 23.6889  957.512
 23.711  951.945
 23.7331  946.248
 23.7552  941.979
 23.7773  938.337
 23.7994  937.662
 23.8215  936.979
 23.8436  935.388
 23.8657  935.087
 23.8878  933.324
 23.9099  934.487
 23.9321  933.84
 23.9542  933.427
 23.9763  932.604
 23.9984  932.146
 24.0205  929.888
 24.0426  928.695
 24.0647  924.069
 24.0868  922.731
 24.1089  917.537
 24.131  911.537
 24.1531  905.782
 24.1752  895.355
 24.1974  885.254
 24.2195  875.551
 24.2416  862.658
 24.2637  851.033
 24.2858  839.384
 24.3079  825.546
 24.33  811.396
 24.3521  796.255
 24.3742  779.452
 24.3963  761.652
 24.4184  742.456
 24.4405  731.885
 24.4626  713.495
 24.4848  690.668
 24.5069  670.337
 24.529  640.151
 24.5511  617.798
 24.5732  576.901
 24.5953  539.252
 24.6174  493.977
 24.6395  463.161
 24.6616  426.494
 24.6837  378.526
 24.7058  318.911
 24.7279  243.617
 24.7501  122.175
 24.7722  21.1435
 24.7943  0.0337944
 24.8164  0.0000000E+00
 24.8385  0.0000000E+00
 24.8606  0.0000000E+00
 24.8827  0.0000000E+00
 24.9048  0.0000000E+00
 24.9269  0.0000000E+00
 24.949  0.0000000E+00
 24.9711  0.0000000E+00
 24.9932  0.0000000E+00
 25.0154  0.0000000E+00
 25.0375  0.0000000E+00
 25.0596  0.0000000E+00
 25.0817  0.0000000E+00
 25.1038  0.0000000E+00
 25.1259  0.0000000E+00
 25.148  0.0000000E+00
 25.1701  0.0000000E+00
 25.1922  0.0000000E+00
 25.2143  0.0000000E+00
 25.2364  0.0000000E+00
 25.2585  0.0000000E+00
 25.2806  0.0000000E+00
 25.3028  0.0000000E+00
 25.3249  0.0000000E+00
 25.347  0.0000000E+00
 25.3691  0.0000000E+00
 25.3912  0.0000000E+00
 25.4133  0.0000000E+00
 25.4354  0.0000000E+00
 25.4575  0.0000000E+00
 25.4796  0.0000000E+00
 25.5017  0.0000000E+00
 25.5238  0.0000000E+00
 25.5459  0.0000000E+00
 25.5681  0.0000000E+00
 25.5902  0.0000000E+00
 25.6123  0.0000000E+00
 25.6344  0.0000000E+00
 25.6565  0.0000000E+00
 25.6786  0.0000000E+00
 25.7007  0.0000000E+00
 25.7228  0.0000000E+00
 25.7449  0.0000000E+00
 25.767  0.0000000E+00
 25.7891  0.0000000E+00
 25.8112  0.0000000E+00
 25.8334  0.0000000E+00
 25.8555  0.0000000E+00
 25.8776  0.0000000E+00
 25.8997  0.0000000E+00
 25.9218  0.0000000E+00
 25.9439  0.0000000E+00
 25.966  0.0000000E+00
 25.9881  0.0000000E+00
 26.0102  0.0000000E+00
 26.0323  0.0000000E+00
 26.0544  0.0000000E+00
 26.0765  0.0000000E+00
 26.0986  0.0000000E+00
 26.1208  0.0000000E+00
 26.1429  0.0000000E+00
 26.165  0.0000000E+00
 26.1871  0.0000000E+00
 26.2092  0.0000000E+00
 26.2313  0.0000000E+00
 26.2534  0.0000000E+00
 26.2755  0.0000000E+00
 26.2976  0.0000000E+00
 26.3197  0.0000000E+00
 26.3418  0.0000000E+00
 26.3639  0.0000000E+00
 26.3861  0.0000000E+00
 26.4082  0.0000000E+00
 26.4303  0.0000000E+00
 26.4524  0.0000000E+00
 26.4745  0.0000000E+00
 26.4966  0.0000000E+00
 26.5187  0.0000000E+00
 26.5408  0.0000000E+00
 26.5629  0.0000000E+00
 26.585  0.0000000E+00
 26.6071  0.0000000E+00
 26.6292  0.0000000E+00
 26.6514  0.0000000E+00
 26.6735  0.0000000E+00
 26.6956  0.0000000E+00
 26.7177  0.0000000E+00
 26.7398  0.0000000E+00
 26.7619  0.0000000E+00
 26.784  0.0000000E+00
 26.8061  0.0000000E+00
 26.8282  0.0000000E+00
 26.8503  0.0000000E+00
 26.8724  0.0000000E+00
 26.8945  0.0000000E+00
 26.9167  0.0000000E+00
 26.9388  0.0000000E+00
 26.9609  0.0000000E+00
 26.983  0.0000000E+00
 27.0051  0.0000000E+00
 27.0272  0.0000000E+00
 27.0493  0.0000000E+00
 27.0714  0.0000000E+00
 27.0935  0.0000000E+00
 27.1156  0.0000000E+00
 27.1377  0.0000000E+00
 27.1598  0.0000000E+00
 27.182  0.0000000E+00
 27.2041  0.0000000E+00
 27.2262  0.0000000E+00
 27.2483  0.0000000E+00
 27.2704  0.0000000E+00
 27.2925  0.0000000E+00
 27.3146  0.0000000E+00
 27.3367  0.0000000E+00
 27.3588  0.0000000E+00
 27.3809  0.0000000E+00
 27.403  0.0000000E+00
 27.4251  0.0000000E+00
 27.4472  0.0000000E+00
 27.4694  0.0000000E+00
 27.4915  0.0000000E+00
 27.5136  0.0000000E+00
 27.5357  0.0000000E+00
 27.5578  0.0000000E+00
 27.5799  0.0000000E+00
 27.602  0.0000000E+00
 27.6241  0.0000000E+00
 27.6462  0.0000000E+00
 27.6683  0.0000000E+00
 27.6904  0.0000000E+00
 27.7125  0.0000000E+00
 27.7347  0.0000000E+00
 27.7568  0.0000000E+00
 27.7789  0.0000000E+00
 27.801  0.0000000E+00
 27.8231  0.0000000E+00
 27.8452  0.0000000E+00
 27.8673  0.0000000E+00
 27.8894  0.0000000E+00
 27.9115  0.0000000E+00
 27.9336  0.0000000E+00
 27.9557  0.0000000E+00
 27.9778  0.0000000E+00
 27.9999  0.0000000E+00
 28.0221  0.0000000E+00
 28.0442  0.0000000E+00
 28.0663  0.0000000E+00
 28.0884  0.0000000E+00
 28.1105  0.0000000E+00
 28.1326  0.0000000E+00
 28.1547  0.0000000E+00
 28.1768  0.0000000E+00
 28.1989  0.0000000E+00
 28.221  0.0000000E+00
 28.2431  0.0000000E+00
 28.2652  0.0000000E+00
 28.2874  0.0000000E+00
 28.3095  0.0000000E+00
 28.3316  0.0000000E+00
 28.3537  0.0000000E+00
 28.3758  0.0000000E+00
 28.3979  0.0000000E+00
 28.42  0.0000000E+00
 28.4421  0.0000000E+00
 28.4642  0.0000000E+00
 28.4863  0.0000000E+00
 28.5084  0.0000000E+00
 28.5305  0.0000000E+00
 28.5527  0.0000000E+00
 28.5748  0.0000000E+00
 28.5969  0.0000000E+00
 28.619  0.0000000E+00
 28.6411  0.0000000E+00
 28.6632  0.0000000E+00
 28.6853  0.0000000E+00
 28.7074  0.0000000E+00
 28.7295  0.0000000E+00
 28.7516  0.0000000E+00
 28.7737  0.0000000E+00
 28.7958  0.0000000E+00
 28.818  0.0000000E+00
 28.8401  0.0000000E+00
 28.8622  0.0000000E+00
 28.8843  0.0000000E+00
 28.9064  0.0000000E+00
 28.9285  0.0000000E+00
 28.9506  0.0000000E+00
 28.9727  0.0000000E+00
 28.9948  0.0000000E+00
 29.0169  0.0000000E+00
 29.039  0.0000000E+00
 29.0611  0.0000000E+00
 29.0832  0.0000000E+00
 29.1054  0.0000000E+00
 29.1275  0.0000000E+00
 29.1496  0.0000000E+00
 29.1717  0.0000000E+00
 29.1938  0.0000000E+00
 29.2159  0.0000000E+00
 29.238  0.0000000E+00
 29.2601  0.0000000E+00
 29.2822  0.0000000E+00
 29.3043  0.0000000E+00
 29.3264  0.0000000E+00
 29.3485  0.0000000E+00
 29.3707  0.0000000E+00
 29.3928  0.0000000E+00
 29.4149  0.0000000E+00
 29.437  0.0000000E+00
 29.4591  0.0000000E+00
 29.4812  0.0000000E+00
 29.5033  0.0000000E+00
 29.5254  0.0000000E+00
 29.5475  0.0000000E+00
 29.5696  0.0000000E+00
 29.5917  0.0000000E+00
 29.6138  0.0000000E+00
 29.636  0.0000000E+00
 29.6581  0.0000000E+00
 29.6802  0.0000000E+00
 29.7023  0.0000000E+00
 29.7244  0.0000000E+00
 29.7465  0.0000000E+00
 29.7686  0.0000000E+00
 29.7907  0.0000000E+00
 29.8128  0.0000000E+00
 29.8349  0.0000000E+00
 29.857  0.0000000E+00
 29.8791  0.0000000E+00
 29.9012  0.0000000E+00
 29.9234  0.0000000E+00
 29.9455  0.0000000E+00
 29.9676  0.0000000E+00
 29.9897  0.0000000E+00
 30.0118  0.0000000E+00
 30.0339  0.0000000E+00
 30.056  0.0000000E+00
 30.0781  0.0000000E+00
 30.1002  0.0000000E+00
 30.1223  0.0000000E+00
 30.1444  0.0000000E+00
 30.1665  0.0000000E+00
 30.1887  0.0000000E+00
 30.2108  0.0000000E+00
 30.2329  0.0000000E+00
 30.255  0.0000000E+00
 30.2771  0.0000000E+00
 30.2992  0.0000000E+00
 30.3213  0.0000000E+00
 30.3434  0.0000000E+00
 30.3655  0.0000000E+00
 30.3876  0.0000000E+00
 30.4097  0.0000000E+00
 30.4318  0.0000000E+00
 30.454  0.0000000E+00
 30.4761  0.0000000E+00
 30.4982  0.0000000E+00
 30.5203  0.0000000E+00
 30.5424  0.0000000E+00
 30.5645  0.0000000E+00
 30.5866  0.0000000E+00
 30.6087  0.0000000E+00
 30.6308  0.0000000E+00
 30.6529  0.0000000E+00
 30.675  0.0000000E+00
 30.6971  0.0000000E+00
 30.7192  0.0000000E+00
 30.7414  0.0000000E+00
 30.7635  0.0000000E+00
 30.7856  0.0000000E+00
 30.8077  0.0000000E+00
 30.8298  0.0000000E+00
 30.8519  0.0000000E+00
 30.874  0.0000000E+00
 30.8961  0.0000000E+00
 30.9182  0.0000000E+00
 30.9403  0.0000000E+00
 30.9624  0.0000000E+00
 30.9845  0.0000000E+00
 31.0067  0.0000000E+00
 31.0288  0.0000000E+00
 31.0509  0.0000000E+00
 31.073  0.0000000E+00
 31.0951  0.0000000E+00
 31.1172  0.0000000E+00
 31.1393  0.0000000E+00
 31.1614  0.0000000E+00
 31.1835  0.0000000E+00
 31.2056  0.0000000E+00
 31.2277  0.0000000E+00
 31.2498  0.0000000E+00
 31.272  0.0000000E+00
 31.2941  0.0000000E+00
 31.3162  0.0000000E+00
 31.3383  0.0000000E+00
 31.3604  0.0000000E+00
 31.3825  0.0000000E+00
 31.4046  0.0000000E+00
 31.4267  0.0000000E+00
 31.4488  0.0000000E+00
 31.4709  0.0000000E+00
 31.493  0.0000000E+00
 31.5151  0.0000000E+00
 31.5373  0.0000000E+00
 31.5594  0.0000000E+00
 31.5815  0.0000000E+00
 31.6036  0.0000000E+00
 31.6257  0.0000000E+00
 31.6478  0.0000000E+00
 31.6699  0.0000000E+00
 31.692  0.0000000E+00
 31.7141  0.0000000E+00
 31.7362  0.0000000E+00
 31.7583  0.0000000E+00
 31.7804  0.0000000E+00
 31.8025  0.0000000E+00
 31.8247  0.0000000E+00
 31.8468  0.0000000E+00
 31.8689  0.0000000E+00
 31.891  0.0000000E+00
 31.9131  0.0000000E+00
 31.9352  0.0000000E+00
 31.9573  0.0000000E+00
 31.9794  0.0000000E+00
 32.0015  0.0000000E+00
 32.0236  0.0000000E+00
 32.0457  0.0000000E+00
 32.0678  0.0000000E+00
 32.09  0.0000000E+00
 32.1121  0.0000000E+00
 32.1342  0.0000000E+00
 32.1563  0.0000000E+00
 32.1784  0.0000000E+00
 32.2005  0.0000000E+00
 32.2226  0.0000000E+00
 32.2447  0.0000000E+00
 32.2668  0.0000000E+00
 32.2889  0.0000000E+00
 32.311  0.0000000E+00
 32.3331  0.0000000E+00
 32.3553  0.0000000E+00
 32.3774  0.0000000E+00
 32.3995  0.0000000E+00
 32.4216  0.0000000E+00
 32.4437  0.0000000E+00
 32.4658  0.0000000E+00
 32.4879  0.0000000E+00
 32.51  0.0000000E+00
 32.5321  0.0000000E+00
 32.5542  0.0000000E+00
 32.5763  0.0000000E+00
 32.5984  0.0000000E+00
 32.6205  0.0000000E+00
 32.6427  0.0000000E+00
 32.6648  0.0000000E+00
 32.6869  0.0000000E+00
 32.709  0.0000000E+00
 32.7311  0.0000000E+00