File: BA_10.chi
D:\DATA\UserData\CuiTian20190403\\CWH\BA\BA_10.tif: 2-theta Scan
2-Theta Angle (Degrees)
Intensity
       1481
 0.011054  41.5856
 0.0331621  42.3272
 0.0552701  44.2056
 0.0773782  44.1375
 0.0994862  44.3583
 0.121594  42.9639
 0.143702  41.6253
 0.16581  40.9735
 0.187918  39.732
 0.210026  39.4713
 0.232135  41.4787
 0.254243  42.4904
 0.276351  41.8741
 0.298459  40.8913
 0.320567  40.6056
 0.342675  40.0558
 0.364783  39.4805
 0.386891  39.8021
 0.408999  40.4474
 0.431107  40.9185
 0.453215  40.5394
 0.475323  40.9169
 0.497431  41.6805
 0.519539  41.7162
 0.541647  41.896
 0.563755  41.8731
 0.585863  42.2869
 0.607971  42.7959
 0.630079  42.0494
 0.652188  41.1342
 0.674296  40.8717
 0.696404  41.602
 0.718512  41.5411
 0.74062  41.169
 0.762728  41.2921
 0.784836  41.5887
 0.806944  41.948
 0.829052  41.7693
 0.85116  41.1035
 0.873268  41.6653
 0.895376  42.0768
 0.917484  41.4173
 0.939592  41.6325
 0.9617  42.2238
 0.983808  42.3856
 1.00592  42.7453
 1.02802  42.6913
 1.05013  42.1471
 1.07224  42.5348
 1.09435  42.9673
 1.11646  43.0481
 1.13856  43.0108
 1.16067  42.7406
 1.18278  42.7475
 1.20489  43.1982
 1.227  43.7375
 1.2491  43.8095
 1.27121  43.2804
 1.29332  43.4016
 1.31543  43.7478
 1.33754  43.5102
 1.35965  43.7953
 1.38175  44.3062
 1.40386  44.706
 1.42597  44.998
 1.44808  44.4562
 1.47019  44.9186
 1.49229  45.27
 1.5144  44.9441
 1.53651  45.7377
 1.55862  46.439
 1.58073  46.5207
 1.60283  47.1606
 1.62494  48.2391
 1.64705  48.6708
 1.66916  48.7268
 1.69127  49.3643
 1.71337  50.2596
 1.73548  50.0959
 1.75759  49.6219
 1.7797  49.8698
 1.80181  51.0427
 1.82391  53.0435
 1.84602  55.4383
 1.86813  59.5787
 1.89024  69.0534
 1.91235  89.6432
 1.93445  122.77
 1.95656  163.157
 1.97867  205.118
 2.00078  246.059
 2.02289  285.477
 2.04499  325.513
 2.0671  364.53
 2.08921  409.571
 2.11132  456.774
 2.13343  509.855
 2.15553  567.582
 2.17764  627.995
 2.19975  681.095
 2.22186  727.78
 2.24397  763.435
 2.26608  793.548
 2.28818  827.838
 2.31029  858.93
 2.3324  887.362
 2.35451  918.813
 2.37662  952.45
 2.39872  983.292
 2.42083  1012.2
 2.44294  1038.34
 2.46505  1064.79
 2.48716  1091.66
 2.50926  1115.04
 2.53137  1139.77
 2.55348  1164.69
 2.57559  1188.31
 2.5977  1210.27
 2.6198  1231.07
 2.64191  1253.25
 2.66402  1275.56
 2.68613  1295.88
 2.70824  1315.18
 2.73034  1335.13
 2.75245  1354.56
 2.77456  1373.46
 2.79667  1393.07
 2.81878  1413.47
 2.84088  1428.43
 2.86299  1444.6
 2.8851  1465.27
 2.90721  1484.14
 2.92932  1500.42
 2.95142  1516.99
 2.97353  1532.79
 2.99564  1546.79
 3.01775  1562.14
 3.03986  1579.87
 3.06196  1596.44
 3.08407  1608.68
 3.10618  1618.78
 3.12829  1629.19
 3.1504  1642.03
 3.17251  1653.92
 3.19461  1664.59
 3.21672  1675.96
 3.23883  1687.88
 3.26094  1701.63
 3.28305  1709.53
 3.30515  1720.75
 3.32726  1731.99
 3.34937  1743.08
 3.37148  1751.07
 3.39359  1759.94
 3.41569  1769.21
 3.4378  1778.77
 3.45991  1790.92
 3.48202  1804.3
 3.50413  1814.86
 3.52623  1820.98
 3.54834  1830.29
 3.57045  1838.71
 3.59256  1847.44
 3.61467  1852.47
 3.63677  1859.49
 3.65888  1867.56
 3.68099  1872.45
 3.7031  1878.38
 3.72521  1887.01
 3.74731  1895.39
 3.76942  1902.89
 3.79153  1908.33
 3.81364  1914.03
 3.83575  1920.26
 3.85785  1925.75
 3.87996  1934.48
 3.90207  1942.86
 3.92418  1947.11
 3.94629  1949.46
 3.9684  1954.7
 3.9905  1959.02
 4.01261  1962.55
 4.03472  1967.28
 4.05683  1974.36
 4.07894  1977.7
 4.10104  1978.34
 4.12315  1983.41
 4.14526  1989.84
 4.16737  1992.72
 4.18948  1995.48
 4.21158  1999.37
 4.23369  2002.39
 4.2558  2004.71
 4.27791  2008.33
 4.30002  2011.28
 4.32212  2016.89
 4.34423  2021.88
 4.36634  2022.73
 4.38845  2022.72
 4.41056  2025.54
 4.43266  2029.05
 4.45477  2032.26
 4.47688  2034.08
 4.49899  2035.17
 4.5211  2035.79
 4.5432  2037.77
 4.56531  2040.88
 4.58742  2041.37
 4.60953  2043.92
 4.63164  2044.03
 4.65374  2044.91
 4.67585  2047.02
 4.69796  2048.11
 4.72007  2049.67
 4.74218  2053.33
 4.76429  2056.35
 4.78639  2054.98
 4.8085  2054.63
 4.83061  2055.48
 4.85272  2054.42
 4.87483  2054.89
 4.89693  2056.7
 4.91904  2056.01
 4.94115  2055.72
 4.96326  2056.54
 4.98537  2058.21
 5.00747  2056.42
 5.02958  2056.23
 5.05169  2056.46
 5.0738  2057.51
 5.09591  2057.82
 5.11801  2058.63
 5.14012  2059.36
 5.16223  2058.76
 5.18434  2058.56
 5.20645  2057.69
 5.22855  2056.24
 5.25066  2057.62
 5.27277  2057.73
 5.29488  2057.69
 5.31699  2057.44
 5.33909  2057.78
 5.3612  2057.8
 5.38331  2057.9
 5.40542  2059.63
 5.42753  2060.49
 5.44963  2058
 5.47174  2056.52
 5.49385  2055.16
 5.51596  2054.63
 5.53807  2056.27
 5.56017  2055.39
 5.58228  2052.68
 5.60439  2054.75
 5.6265  2057.1
 5.64861  2057.18
 5.67072  2054.74
 5.69282  2052.69
 5.71493  2051
 5.73704  2051.48
 5.75915  2050.21
 5.78126  2049.49
 5.80336  2050.38
 5.82547  2049.52
 5.84758  2051.13
 5.86969  2050.81
 5.8918  2048.26
 5.9139  2048.3
 5.93601  2049.33
 5.95812  2048.43
 5.98023  2046.94
 6.00234  2046.07
 6.02444  2044.67
 6.04655  2044.42
 6.06866  2045.17
 6.09077  2043.15
 6.11288  2039.79
 6.13498  2038.02
 6.15709  2037.45
 6.1792  2035.27
 6.20131  2035.47
 6.22342  2037.13
 6.24552  2039.3
 6.26763  2040.91
 6.28974  2041.16
 6.31185  2036.72
 6.33396  2034.87
 6.35606  2037.35
 6.37817  2040.9
 6.40028  2044.88
 6.42239  2046.3
 6.4445  2043.36
 6.4666  2037.66
 6.48871  2032.87
 6.51082  2031.79
 6.53293  2033.47
 6.55504  2032.37
 6.57715  2029.13
 6.59925  2027.58
 6.62136  2028.71
 6.64347  2030.11
 6.66558  2029.38
 6.68769  2026.79
 6.70979  2027.16
 6.7319  2026.35
 6.75401  2023.72
 6.77612  2022.34
 6.79823  2022.83
 6.82033  2021.79
 6.84244  2020.54
 6.86455  2019.29
 6.88666  2018.46
 6.90877  2018.4
 6.93087  2020.15
 6.95298  2019.88
 6.97509  2017.97
 6.9972  2015.83
 7.01931  2015.38
 7.04141  2014.53
 7.06352  2012.58
 7.08563  2012.67
 7.10774  2012.82
 7.12985  2011
 7.15195  2008.73
 7.17406  2008.52
 7.19617  2009.64
 7.21828  2010.1
 7.24039  2008.02
 7.26249  2008.44
 7.2846  2007.43
 7.30671  2004.79
 7.32882  2003.12
 7.35093  2002.17
 7.37303  2001.22
 7.39514  2001.75
 7.41725  2002.36
 7.43936  2003.02
 7.46147  2002.18
 7.48358  2001.6
 7.50568  1999.2
 7.52779  1997.29
 7.5499  1996.49
 7.57201  1996.07
 7.59412  1995.78
 7.61622  1997.47
 7.63833  1998.57
 7.66044  1998.46
 7.68255  1997.19
 7.70466  1997.54
 7.72676  1995.61
 7.74887  1994.35
 7.77098  1995.14
 7.79309  1994.91
 7.8152  1992.43
 7.8373  1990.66
 7.85941  1991.34
 7.88152  1992.25
 7.90363  1991.87
 7.92574  1990.91
 7.94784  1990.2
 7.96995  1989.56
 7.99206  1989.34
 8.01417  1989.44
 8.03628  1988.82
 8.05838  1988.17
 8.08049  1988.45
 8.1026  1988.53
 8.12471  1987.97
 8.14682  1988.59
 8.16893  1988.03
 8.19103  1986.78
 8.21314  1985.99
 8.23525  1985.66
 8.25736  1985.39
 8.27946  1985.24
 8.30157  1984.72
 8.32368  1986.3
 8.34579  1986.6
 8.3679  1986.88
 8.39001  1986.75
 8.41211  1986.45
 8.43422  1984.69
 8.45633  1985.81
 8.47844  1987.52
 8.50055  1989.11
 8.52265  1989.51
 8.54476  1991.69
 8.56687  1998.52
 8.58898  2005.62
 8.61109  2012.94
 8.63319  2020.53
 8.6553  2026.13
 8.67741  2027.45
 8.69952  2023.74
 8.72163  2017.34
 8.74373  2010.35
 8.76584  2005.1
 8.78795  2002.01
 8.81006  1998.82
 8.83217  1995.89
 8.85427  1993.24
 8.87638  1991.89
 8.89849  1989.51
 8.9206  1987.87
 8.94271  1988.96
 8.96482  1991.68
 8.98692  1997.91
 9.00903  2005.43
 9.03114  2011.99
 9.05325  2015.22
 9.07535  2015.49
 9.09746  2010.78
 9.11957  2005.11
 9.14168  2002.46
 9.16379  1998.59
 9.1859  1995.25
 9.208  1992.96
 9.23011  1994.5
 9.25222  1995.62
 9.27433  1993.05
 9.29644  1990.42
 9.31854  1987.1
 9.34065  1985.87
 9.36276  1987.27
 9.38487  1988.59
 9.40698  1989.23
 9.42908  1989
 9.45119  1992.41
 9.4733  2011.36
 9.49541  2071.32
 9.51752  2101.56
 9.53962  2106.79
 9.56173  2034.77
 9.58384  2000.85
 9.60595  1997.97
 9.62806  1997.79
 9.65016  1997.57
 9.67227  1998.49
 9.69438  2000.76
 9.71649  2003.57
 9.7386  2004.09
 9.7607  2004.26
 9.78281  2004.23
 9.80492  2007.19
 9.82703  2010
 9.84914  2011.85
 9.87124  2014.9
 9.89335  2019.03
 9.91546  2024.86
 9.93757  2033.22
 9.95968  2042.93
 9.98178  2052.75
 10.0039  2059.11
 10.026  2058.4
 10.0481  2059
 10.0702  2060.72
 10.0923  2060.12
 10.1144  2060.66
 10.1365  2057.92
 10.1586  2048.61
 10.1808  2038.33
 10.2029  2029.05
 10.225  2021.89
 10.2471  2018.3
 10.2692  2015.87
 10.2913  2014.92
 10.3134  2013.79
 10.3355  2014.6
 10.3576  2015.47
 10.3797  2016.55
 10.4018  2017.82
 10.4239  2018.62
 10.4461  2021.03
 10.4682  2022.67
 10.4903  2025.03
 10.5124  2034.16
 10.5345  2052.56
 10.5566  2064.77
 10.5787  2053.56
 10.6008  2036.8
 10.6229  2036
 10.645  2039.6
 10.6671  2043.1
 10.6892  2047.64
 10.7113  2049.21
 10.7335  2049.44
 10.7556  2053.79
 10.7777  2062.49
 10.7998  2069.31
 10.8219  2080.11
 10.844  2104.7
 10.8661  2148.42
 10.8882  2203.68
 10.9103  2254.11
 10.9324  2312.51
 10.9545  2450.08
 10.9766  2624.54
 10.9988  2783.04
 11.0209  2960.62
 11.043  3102.13
 11.0651  3221.87
 11.0872  3297.88
 11.1093  3285.57
 11.1314  3143.31
 11.1535  2936.41
 11.1756  2761.98
 11.1977  2603.31
 11.2198  2471.24
 11.2419  2340.47
 11.2641  2236.69
 11.2862  2188.16
 11.3083  2154.95
 11.3304  2132.18
 11.3525  2111.98
 11.3746  2096
 11.3967  2089.6
 11.4188  2085.51
 11.4409  2084.05
 11.463  2085.73
 11.4851  2089.18
 11.5072  2093.57
 11.5293  2097.07
 11.5515  2102.06
 11.5736  2107.8
 11.5957  2114.23
 11.6178  2123.66
 11.6399  2132.5
 11.662  2142.34
 11.6841  2155.27
 11.7062  2165.97
 11.7283  2169.21
 11.7504  2172.76
 11.7725  2180.1
 11.7946  2187.75
 11.8168  2192.61
 11.8389  2190.36
 11.861  2177.69
 11.8831  2163.12
 11.9052  2149.99
 11.9273  2130.51
 11.9494  2110.07
 11.9715  2095.59
 11.9936  2088.51
 12.0157  2084.59
 12.0378  2081.83
 12.0599  2080.57
 12.0821  2080.03
 12.1042  2081.74
 12.1263  2083.21
 12.1484  2084.1
 12.1705  2086.81
 12.1926  2091.15
 12.2147  2093.5
 12.2368  2094.73
 12.2589  2097
 12.281  2097.84
 12.3031  2100.88
 12.3252  2107.63
 12.3473  2113.51
 12.3695  2119.35
 12.3916  2127.58
 12.4137  2135.76
 12.4358  2143.76
 12.4579  2147.31
 12.48  2147.61
 12.5021  2144.73
 12.5242  2143.89
 12.5463  2141.96
 12.5684  2144.42
 12.5905  2151.86
 12.6126  2174.32
 12.6348  2220.97
 12.6569  2286.26
 12.679  2366.16
 12.7011  2439.51
 12.7232  2462.22
 12.7453  2446.63
 12.7674  2444.15
 12.7895  2476.8
 12.8116  2514.11
 12.8337  2523.87
 12.8558  2491.21
 12.8779  2431.08
 12.9  2359.83
 12.9222  2284.89
 12.9443  2220.41
 12.9664  2173.65
 12.9885  2145.07
 13.0106  2129.02
 13.0327  2119.57
 13.0548  2115.48
 13.0769  2113.92
 13.099  2111.91
 13.1211  2108.5
 13.1432  2106.75
 13.1653  2107.02
 13.1875  2106.84
 13.2096  2105.92
 13.2317  2105.93
 13.2538  2107.46
 13.2759  2109.52
 13.298  2106.9
 13.3201  2104
 13.3422  2104.01
 13.3643  2104.92
 13.3864  2104.61
 13.4085  2104.71
 13.4306  2105.02
 13.4527  2105
 13.4749  2104.08
 13.497  2102.77
 13.5191  2101.04
 13.5412  2100.07
 13.5633  2100.92
 13.5854  2099.75
 13.6075  2099.1
 13.6296  2098.98
 13.6517  2101.55
 13.6738  2102.68
 13.6959  2102.8
 13.718  2104.55
 13.7402  2107.32
 13.7623  2109.68
 13.7844  2112.76
 13.8065  2115.14
 13.8286  2118.19
 13.8507  2121
 13.8728  2123.33
 13.8949  2124.36
 13.917  2125.75
 13.9391  2127.12
 13.9612  2126.26
 13.9833  2123.87
 14.0054  2120.85
 14.0276  2119
 14.0497  2117.87
 14.0718  2116.36
 14.0939  2116.52
 14.116  2115.88
 14.1381  2116.49
 14.1602  2118.89
 14.1823  2122.29
 14.2044  2123.84
 14.2265  2126.86
 14.2486  2131.27
 14.2707  2137.25
 14.2929  2142.28
 14.315  2148.28
 14.3371  2153.19
 14.3592  2154.38
 14.3813  2152.29
 14.4034  2147.17
 14.4255  2139.63
 14.4476  2133.67
 14.4697  2129.19
 14.4918  2127.58
 14.5139  2126.41
 14.536  2125.76
 14.5582  2124.93
 14.5803  2123.97
 14.6024  2124.26
 14.6245  2124.55
 14.6466  2123.5
 14.6687  2123.98
 14.6908  2126.25
 14.7129  2126.25
 14.735  2126
 14.7571  2126.91
 14.7792  2126.76
 14.8013  2126.89
 14.8234  2127.02
 14.8456  2127.95
 14.8677  2129.21
 14.8898  2129.35
 14.9119  2129.49
 14.934  2129.79
 14.9561  2132.46
 14.9782  2134.4
 15.0003  2134.58
 15.0224  2135.67
 15.0445  2136.58
 15.0666  2136.47
 15.0887  2136.14
 15.1109  2136.46
 15.133  2138.04
 15.1551  2138.66
 15.1772  2139.32
 15.1993  2139.03
 15.2214  2140.28
 15.2435  2142.61
 15.2656  2141.39
 15.2877  2141.89
 15.3098  2144.54
 15.3319  2144.92
 15.354  2144.43
 15.3761  2146.56
 15.3983  2148.41
 15.4204  2150.01
 15.4425  2150.86
 15.4646  2151.39
 15.4867  2152.95
 15.5088  2155.94
 15.5309  2158.67
 15.553  2163.07
 15.5751  2168.47
 15.5972  2173.3
 15.6193  2179.29
 15.6414  2184.7
 15.6636  2186.04
 15.6857  2183.68
 15.7078  2180.64
 15.7299  2180.5
 15.752  2181.71
 15.7741  2183.99
 15.7962  2186.02
 15.8183  2188.28
 15.8404  2190.53
 15.8625  2195.33
 15.8846  2201.53
 15.9067  2210.78
 15.9289  2224.06
 15.951  2239.59
 15.9731  2255.16
 15.9952  2259.75
 16.0173  2249.42
 16.0394  2231.69
 16.0615  2214.93
 16.0836  2199.69
 16.1057  2187.3
 16.1278  2179.03
 16.1499  2173.09
 16.172  2170.59
 16.1941  2166.36
 16.2163  2162.57
 16.2384  2162.4
 16.2605  2161.07
 16.2826  2159.81
 16.3047  2159.32
 16.3268  2159.39
 16.3489  2157.96
 16.371  2157.93
 16.3931  2157.45
 16.4152  2156.63
 16.4373  2155.09
 16.4594  2153.44
 16.4816  2153.66
 16.5037  2154.86
 16.5258  2154.6
 16.5479  2156.71
 16.57  2156.39
 16.5921  2156.12
 16.6142  2156.74
 16.6363  2156.36
 16.6584  2156.1
 16.6805  2154.63
 16.7026  2153.9
 16.7247  2153.5
 16.7468  2150.72
 16.769  2148.92
 16.7911  2148.7
 16.8132  2147.95
 16.8353  2147.62
 16.8574  2148.1
 16.8795  2148.59
 16.9016  2149.99
 16.9237  2149.52
 16.9458  2148.61
 16.9679  2147.5
 16.99  2146.18
 17.0121  2145.1
 17.0343  2145.45
 17.0564  2146.56
 17.0785  2147.05
 17.1006  2147.55
 17.1227  2148.37
 17.1448  2151.42
 17.1669  2155.53
 17.189  2161.35
 17.2111  2169.12
 17.2332  2179.62
 17.2553  2190.15
 17.2774  2198.47
 17.2995  2199.78
 17.3217  2196.29
 17.3438  2192.69
 17.3659  2188.72
 17.388  2185.03
 17.4101  2182.24
 17.4322  2179.52
 17.4543  2177.01
 17.4764  2172.76
 17.4985  2168.25
 17.5206  2163.64
 17.5427  2160.02
 17.5648  2155.74
 17.587  2149.18
 17.6091  2144.12
 17.6312  2142.06
 17.6533  2139.59
 17.6754  2135.73
 17.6975  2133.63
 17.7196  2131.81
 17.7417  2130.35
 17.7638  2130.03
 17.7859  2130.05
 17.808  2128.52
 17.8301  2127.88
 17.8523  2128.6
 17.8744  2131.66
 17.8965  2132.59
 17.9186  2136.3
 17.9407  2144.59
 17.9628  2158.53
 17.9849  2182.36
 18.007  2231.18
 18.0291  2299.15
 18.0512  2358.27
 18.0733  2422.7
 18.0954  2491.99
 18.1175  2504.65
 18.1397  2474.2
 18.1618  2432.39
 18.1839  2382.38
 18.206  2328.74
 18.2281  2255.46
 18.2502  2194.46
 18.2723  2160.19
 18.2944  2140.21
 18.3165  2126.06
 18.3386  2113.02
 18.3607  2102.36
 18.3828  2094.01
 18.405  2087.02
 18.4271  2081.27
 18.4492  2076.43
 18.4713  2073.39
 18.4934  2071.23
 18.5155  2069.46
 18.5376  2065.21
 18.5597  2061.29
 18.5818  2060.01
 18.6039  2060.92
 18.626  2062.58
 18.6481  2062.07
 18.6702  2059.95
 18.6924  2058.36
 18.7145  2055.96
 18.7366  2053.01
 18.7587  2047.22
 18.7808  2043.91
 18.8029  2043.46
 18.825  2041.84
 18.8471  2039.55
 18.8692  2036.64
 18.8913  2031.95
 18.9134  2025.96
 18.9355  2019.86
 18.9577  2015.19
 18.9798  2010
 19.0019  2006.66
 19.024  2004.13
 19.0461  2000.39
 19.0682  1996.19
 19.0903  1992.32
 19.1124  1991.26
 19.1345  1989.17
 19.1566  1986.53
 19.1787  1984.01
 19.2008  1982.08
 19.223  1981.02
 19.2451  1980.04
 19.2672  1978.53
 19.2893  1976.56
 19.3114  1976.02
 19.3335  1975.87
 19.3556  1972.81
 19.3777  1969.08
 19.3998  1965.62
 19.4219  1963.48
 19.444  1960.74
 19.4661  1957.96
 19.4882  1956.31
 19.5104  1955.14
 19.5325  1953.53
 19.5546  1951.58
 19.5767  1949.67
 19.5988  1948.38
 19.6209  1945.43
 19.643  1942.92
 19.6651  1940.35
 19.6872  1936.36
 19.7093  1933.36
 19.7314  1930.66
 19.7535  1927.41
 19.7757  1926.06
 19.7978  1924.41
 19.8199  1922.67
 19.842  1921.81
 19.8641  1920.9
 19.8862  1918.17
 19.9083  1915.82
 19.9304  1913.65
 19.9525  1912.34
 19.9746  1910.81
 19.9967  1908.94
 20.0188  1907.96
 20.0409  1906.67
 20.0631  1906.01
 20.0852  1903.91
 20.1073  1902.22
 20.1294  1902.07
 20.1515  1900.95
 20.1736  1900.21
 20.1957  1899.12
 20.2178  1896.98
 20.2399  1895.85
 20.262  1893.6
 20.2841  1892.63
 20.3062  1893.13
 20.3284  1893.51
 20.3505  1894.94
 20.3726  1894.99
 20.3947  1893.72
 20.4168  1891.82
 20.4389  1888.13
 20.461  1881.67
 20.4831  1877.77
 20.5052  1876.33
 20.5273  1874.63
 20.5494  1873.26
 20.5715  1871.29
 20.5936  1870.31
 20.6158  1869.34
 20.6379  1866.59
 20.66  1864.08
 20.6821  1862.48
 20.7042  1861.46
 20.7263  1860.29
 20.7484  1859.58
 20.7705  1859.16
 20.7926  1857.61
 20.8147  1855.93
 20.8368  1857.09
 20.8589  1857.9
 20.8811  1857.95
 20.9032  1858.12
 20.9253  1859.32
 20.9474  1860.17
 20.9695  1862.01
 20.9916  1867.36
 21.0137  1872.03
 21.0358  1875.74
 21.0579  1881.84
 21.08  1890.97
 21.1021  1899.37
 21.1242  1907.74
 21.1464  1919.8
 21.1685  1931.82
 21.1906  1942.66
 21.2127  1957.26
 21.2348  1978.47
 21.2569  1998.21
 21.279  2020.53
 21.3011  2064.47
 21.3232  2127.98
 21.3453  2194.37
 21.3674  2207.59
 21.3895  2162.79
 21.4116  2101.6
 21.4338  2053.15
 21.4559  2031.59
 21.478  2002.07
 21.5001  1957.12
 21.5222  1916.26
 21.5443  1887.77
 21.5664  1867.01
 21.5885  1850.22
 21.6106  1836.92
 21.6327  1826.62
 21.6548  1818.66
 21.6769  1811.04
 21.6991  1804.67
 21.7212  1799.93
 21.7433  1796
 21.7654  1792.47
 21.7875  1790.39
 21.8096  1787.19
 21.8317  1785.44
 21.8538  1783.76
 21.8759  1781.22
 21.898  1778.96
 21.9201  1779.22
 21.9422  1778.33
 21.9643  1775.99
 21.9865  1775.88
 22.0086  1775.42
 22.0307  1774.8
 22.0528  1776.62
 22.0749  1781.4
 22.097  1793.78
 22.1191  1821.03
 22.1412  1845.03
 22.1633  1845.57
 22.1854  1832.31
 22.2075  1815.97
 22.2296  1803.02
 22.2518  1794.15
 22.2739  1786.02
 22.296  1776.41
 22.3181  1768.1
 22.3402  1760.54
 22.3623  1754.2
 22.3844  1749.97
 22.4065  1746.13
 22.4286  1741.07
 22.4507  1739.11
 22.4728  1736.21
 22.4949  1733.62
 22.5171  1731.87
 22.5392  1730.18
 22.5613  1728.12
 22.5834  1727.31
 22.6055  1726.37
 22.6276  1723.77
 22.6497  1722.07
 22.6718  1720.79
 22.6939  1719.09
 22.716  1716.67
 22.7381  1713.67
 22.7602  1710.64
 22.7823  1708.04
 22.8045  1705.7
 22.8266  1706.19
 22.8487  1702.6
 22.8708  1701.1
 22.8929  1699.09
 22.915  1696.07
 22.9371  1694.84
 22.9592  1695.51
 22.9813  1692.25
 23.0034  1691.91
 23.0255  1690.4
 23.0476  1687.09
 23.0698  1686.66
 23.0919  1685.8
 23.114  1683
 23.1361  1654.15
 23.1582  1559.6
 23.1803  1469.62
 23.2024  1405.61
 23.2245  1367.41
 23.2466  1331.49
 23.2687  1291.06
 23.2908  1252.68
 23.3129  1242.8
 23.335  1223.35
 23.3572  1202.62
 23.3793  1180.79
 23.4014  1163.2
 23.4235  1142.32
 23.4456  1123.81
 23.4677  1107.66
 23.4898  1092.07
 23.5119  1079.32
 23.534  1078.98
 23.5561  1072.19
 23.5782  1066.73
 23.6003  1058.95
 23.6225  1052.78
 23.6446  1044.61
 23.6667  1039.24
 23.6888  1030.85
 23.7109  1025.48
 23.733  1019.43
 23.7551  1015.14
 23.7772  1010.95
 23.7993  1008.49
 23.8214  1005.86
 23.8435  1003.72
 23.8656  1004
 23.8877  1002.88
 23.9099  1003.23
 23.932  1001.78
 23.9541  1001.94
 23.9762  1001.04
 23.9983  1000.43
 24.0204  999.461
 24.0425  998.946
 24.0646  994.919
 24.0867  993.164
 24.1088  988.166
 24.1309  981.729
 24.153  975.016
 24.1752  963.707
 24.1973  952.805
 24.2194  942.247
 24.2415  928.972
 24.2636  916.259
 24.2857  903.094
 24.3078  887.999
 24.3299  872.907
 24.352  856.626
 24.3741  838.17
 24.3962  819.073
 24.4183  799.436
 24.4405  787.652
 24.4626  766.633
 24.4847  741.442
 24.5068  719.67
 24.5289  686.94
 24.551  662.518
 24.5731  618.871
 24.5952  578.661
 24.6173  529.581
 24.6394  496.287
 24.6615  457.333
 24.6836  406.561
 24.7057  342.721
 24.7279  261.182
 24.75  130.468
 24.7721  22.5042
 24.7942  0.0347284
 24.8163  0.0000000E+00
 24.8384  0.0000000E+00
 24.8605  0.0000000E+00
 24.8826  0.0000000E+00
 24.9047  0.0000000E+00
 24.9268  0.0000000E+00
 24.9489  0.0000000E+00
 24.971  0.0000000E+00
 24.9932  0.0000000E+00
 25.0153  0.0000000E+00
 25.0374  0.0000000E+00
 25.0595  0.0000000E+00
 25.0816  0.0000000E+00
 25.1037  0.0000000E+00
 25.1258  0.0000000E+00
 25.1479  0.0000000E+00
 25.17  0.0000000E+00
 25.1921  0.0000000E+00
 25.2142  0.0000000E+00
 25.2363  0.0000000E+00
 25.2584  0.0000000E+00
 25.2806  0.0000000E+00
 25.3027  0.0000000E+00
 25.3248  0.0000000E+00
 25.3469  0.0000000E+00
 25.369  0.0000000E+00
 25.3911  0.0000000E+00
 25.4132  0.0000000E+00
 25.4353  0.0000000E+00
 25.4574  0.0000000E+00
 25.4795  0.0000000E+00
 25.5016  0.0000000E+00
 25.5237  0.0000000E+00
 25.5459  0.0000000E+00
 25.568  0.0000000E+00
 25.5901  0.0000000E+00
 25.6122  0.0000000E+00
 25.6343  0.0000000E+00
 25.6564  0.0000000E+00
 25.6785  0.0000000E+00
 25.7006  0.0000000E+00
 25.7227  0.0000000E+00
 25.7448  0.0000000E+00
 25.7669  0.0000000E+00
 25.789  0.0000000E+00
 25.8112  0.0000000E+00
 25.8333  0.0000000E+00
 25.8554  0.0000000E+00
 25.8775  0.0000000E+00
 25.8996  0.0000000E+00
 25.9217  0.0000000E+00
 25.9438  0.0000000E+00
 25.9659  0.0000000E+00
 25.988  0.0000000E+00
 26.0101  0.0000000E+00
 26.0322  0.0000000E+00
 26.0543  0.0000000E+00
 26.0764  0.0000000E+00
 26.0986  0.0000000E+00
 26.1207  0.0000000E+00
 26.1428  0.0000000E+00
 26.1649  0.0000000E+00
 26.187  0.0000000E+00
 26.2091  0.0000000E+00
 26.2312  0.0000000E+00
 26.2533  0.0000000E+00
 26.2754  0.0000000E+00
 26.2975  0.0000000E+00
 26.3196  0.0000000E+00
 26.3417  0.0000000E+00
 26.3639  0.0000000E+00
 26.386  0.0000000E+00
 26.4081  0.0000000E+00
 26.4302  0.0000000E+00
 26.4523  0.0000000E+00
 26.4744  0.0000000E+00
 26.4965  0.0000000E+00
 26.5186  0.0000000E+00
 26.5407  0.0000000E+00
 26.5628  0.0000000E+00
 26.5849  0.0000000E+00
 26.607  0.0000000E+00
 26.6291  0.0000000E+00
 26.6513  0.0000000E+00
 26.6734  0.0000000E+00
 26.6955  0.0000000E+00
 26.7176  0.0000000E+00
 26.7397  0.0000000E+00
 26.7618  0.0000000E+00
 26.7839  0.0000000E+00
 26.806  0.0000000E+00
 26.8281  0.0000000E+00
 26.8502  0.0000000E+00
 26.8723  0.0000000E+00
 26.8944  0.0000000E+00
 26.9166  0.0000000E+00
 26.9387  0.0000000E+00
 26.9608  0.0000000E+00
 26.9829  0.0000000E+00
 27.005  0.0000000E+00
 27.0271  0.0000000E+00
 27.0492  0.0000000E+00
 27.0713  0.0000000E+00
 27.0934  0.0000000E+00
 27.1155  0.0000000E+00
 27.1376  0.0000000E+00
 27.1597  0.0000000E+00
 27.1818  0.0000000E+00
 27.204  0.0000000E+00
 27.2261  0.0000000E+00
 27.2482  0.0000000E+00
 27.2703  0.0000000E+00
 27.2924  0.0000000E+00
 27.3145  0.0000000E+00
 27.3366  0.0000000E+00
 27.3587  0.0000000E+00
 27.3808  0.0000000E+00
 27.4029  0.0000000E+00
 27.425  0.0000000E+00
 27.4471  0.0000000E+00
 27.4693  0.0000000E+00
 27.4914  0.0000000E+00
 27.5135  0.0000000E+00
 27.5356  0.0000000E+00
 27.5577  0.0000000E+00
 27.5798  0.0000000E+00
 27.6019  0.0000000E+00
 27.624  0.0000000E+00
 27.6461  0.0000000E+00
 27.6682  0.0000000E+00
 27.6903  0.0000000E+00
 27.7124  0.0000000E+00
 27.7345  0.0000000E+00
 27.7567  0.0000000E+00
 27.7788  0.0000000E+00
 27.8009  0.0000000E+00
 27.823  0.0000000E+00
 27.8451  0.0000000E+00
 27.8672  0.0000000E+00
 27.8893  0.0000000E+00
 27.9114  0.0000000E+00
 27.9335  0.0000000E+00
 27.9556  0.0000000E+00
 27.9777  0.0000000E+00
 27.9998  0.0000000E+00
 28.022  0.0000000E+00
 28.0441  0.0000000E+00
 28.0662  0.0000000E+00
 28.0883  0.0000000E+00
 28.1104  0.0000000E+00
 28.1325  0.0000000E+00
 28.1546  0.0000000E+00
 28.1767  0.0000000E+00
 28.1988  0.0000000E+00
 28.2209  0.0000000E+00
 28.243  0.0000000E+00
 28.2651  0.0000000E+00
 28.2873  0.0000000E+00
 28.3094  0.0000000E+00
 28.3315  0.0000000E+00
 28.3536  0.0000000E+00
 28.3757  0.0000000E+00
 28.3978  0.0000000E+00
 28.4199  0.0000000E+00
 28.442  0.0000000E+00
 28.4641  0.0000000E+00
 28.4862  0.0000000E+00
 28.5083  0.0000000E+00
 28.5304  0.0000000E+00
 28.5525  0.0000000E+00
 28.5747  0.0000000E+00
 28.5968  0.0000000E+00
 28.6189  0.0000000E+00
 28.641  0.0000000E+00
 28.6631  0.0000000E+00
 28.6852  0.0000000E+00
 28.7073  0.0000000E+00
 28.7294  0.0000000E+00
 28.7515  0.0000000E+00
 28.7736  0.0000000E+00
 28.7957  0.0000000E+00
 28.8178  0.0000000E+00
 28.84  0.0000000E+00
 28.8621  0.0000000E+00
 28.8842  0.0000000E+00
 28.9063  0.0000000E+00
 28.9284  0.0000000E+00
 28.9505  0.0000000E+00
 28.9726  0.0000000E+00
 28.9947  0.0000000E+00
 29.0168  0.0000000E+00
 29.0389  0.0000000E+00
 29.061  0.0000000E+00
 29.0831  0.0000000E+00
 29.1052  0.0000000E+00
 29.1274  0.0000000E+00
 29.1495  0.0000000E+00
 29.1716  0.0000000E+00
 29.1937  0.0000000E+00
 29.2158  0.0000000E+00
 29.2379  0.0000000E+00
 29.26  0.0000000E+00
 29.2821  0.0000000E+00
 29.3042  0.0000000E+00
 29.3263  0.0000000E+00
 29.3484  0.0000000E+00
 29.3705  0.0000000E+00
 29.3927  0.0000000E+00
 29.4148  0.0000000E+00
 29.4369  0.0000000E+00
 29.459  0.0000000E+00
 29.4811  0.0000000E+00
 29.5032  0.0000000E+00
 29.5253  0.0000000E+00
 29.5474  0.0000000E+00
 29.5695  0.0000000E+00
 29.5916  0.0000000E+00
 29.6137  0.0000000E+00
 29.6358  0.0000000E+00
 29.658  0.0000000E+00
 29.6801  0.0000000E+00
 29.7022  0.0000000E+00
 29.7243  0.0000000E+00
 29.7464  0.0000000E+00
 29.7685  0.0000000E+00
 29.7906  0.0000000E+00
 29.8127  0.0000000E+00
 29.8348  0.0000000E+00
 29.8569  0.0000000E+00
 29.879  0.0000000E+00
 29.9011  0.0000000E+00
 29.9232  0.0000000E+00
 29.9454  0.0000000E+00
 29.9675  0.0000000E+00
 29.9896  0.0000000E+00
 30.0117  0.0000000E+00
 30.0338  0.0000000E+00
 30.0559  0.0000000E+00
 30.078  0.0000000E+00
 30.1001  0.0000000E+00
 30.1222  0.0000000E+00
 30.1443  0.0000000E+00
 30.1664  0.0000000E+00
 30.1885  0.0000000E+00
 30.2107  0.0000000E+00
 30.2328  0.0000000E+00
 30.2549  0.0000000E+00
 30.277  0.0000000E+00
 30.2991  0.0000000E+00
 30.3212  0.0000000E+00
 30.3433  0.0000000E+00
 30.3654  0.0000000E+00
 30.3875  0.0000000E+00
 30.4096  0.0000000E+00
 30.4317  0.0000000E+00
 30.4538  0.0000000E+00
 30.4759  0.0000000E+00
 30.4981  0.0000000E+00
 30.5202  0.0000000E+00
 30.5423  0.0000000E+00
 30.5644  0.0000000E+00
 30.5865  0.0000000E+00
 30.6086  0.0000000E+00
 30.6307  0.0000000E+00
 30.6528  0.0000000E+00
 30.6749  0.0000000E+00
 30.697  0.0000000E+00
 30.7191  0.0000000E+00
 30.7412  0.0000000E+00
 30.7634  0.0000000E+00
 30.7855  0.0000000E+00
 30.8076  0.0000000E+00
 30.8297  0.0000000E+00
 30.8518  0.0000000E+00
 30.8739  0.0000000E+00
 30.896  0.0000000E+00
 30.9181  0.0000000E+00
 30.9402  0.0000000E+00
 30.9623  0.0000000E+00
 30.9844  0.0000000E+00
 31.0065  0.0000000E+00
 31.0286  0.0000000E+00
 31.0508  0.0000000E+00
 31.0729  0.0000000E+00
 31.095  0.0000000E+00
 31.1171  0.0000000E+00
 31.1392  0.0000000E+00
 31.1613  0.0000000E+00
 31.1834  0.0000000E+00
 31.2055  0.0000000E+00
 31.2276  0.0000000E+00
 31.2497  0.0000000E+00
 31.2718  0.0000000E+00
 31.2939  0.0000000E+00
 31.3161  0.0000000E+00
 31.3382  0.0000000E+00
 31.3603  0.0000000E+00
 31.3824  0.0000000E+00
 31.4045  0.0000000E+00
 31.4266  0.0000000E+00
 31.4487  0.0000000E+00
 31.4708  0.0000000E+00
 31.4929  0.0000000E+00
 31.515  0.0000000E+00
 31.5371  0.0000000E+00
 31.5592  0.0000000E+00
 31.5814  0.0000000E+00
 31.6035  0.0000000E+00
 31.6256  0.0000000E+00
 31.6477  0.0000000E+00
 31.6698  0.0000000E+00
 31.6919  0.0000000E+00
 31.714  0.0000000E+00
 31.7361  0.0000000E+00
 31.7582  0.0000000E+00
 31.7803  0.0000000E+00
 31.8024  0.0000000E+00
 31.8245  0.0000000E+00
 31.8466  0.0000000E+00
 31.8688  0.0000000E+00
 31.8909  0.0000000E+00
 31.913  0.0000000E+00
 31.9351  0.0000000E+00
 31.9572  0.0000000E+00
 31.9793  0.0000000E+00
 32.0014  0.0000000E+00
 32.0235  0.0000000E+00
 32.0456  0.0000000E+00
 32.0677  0.0000000E+00
 32.0898  0.0000000E+00
 32.1119  0.0000000E+00
 32.1341  0.0000000E+00
 32.1562  0.0000000E+00
 32.1783  0.0000000E+00
 32.2004  0.0000000E+00
 32.2225  0.0000000E+00
 32.2446  0.0000000E+00
 32.2667  0.0000000E+00
 32.2888  0.0000000E+00
 32.3109  0.0000000E+00
 32.333  0.0000000E+00
 32.3551  0.0000000E+00
 32.3772  0.0000000E+00
 32.3993  0.0000000E+00
 32.4215  0.0000000E+00
 32.4436  0.0000000E+00
 32.4657  0.0000000E+00
 32.4878  0.0000000E+00
 32.5099  0.0000000E+00
 32.532  0.0000000E+00
 32.5541  0.0000000E+00
 32.5762  0.0000000E+00
 32.5983  0.0000000E+00
 32.6204  0.0000000E+00
 32.6425  0.0000000E+00
 32.6646  0.0000000E+00
 32.6868  0.0000000E+00
 32.7089  0.0000000E+00
 32.731  0.0000000E+00