File: BA_13.chi
D:\DATA\UserData\CuiTian20190403\CWH\BA\BA_13.tif: 2-theta Scan
2-Theta Angle (Degrees)
Intensity
       1481
 0.0110541  46.332
 0.0331622  45.4325
 0.0552703  43.1237
 0.0773785  41.3486
 0.0994866  41.3729
 0.121595  42.4776
 0.143703  42.8237
 0.165811  41.6187
 0.187919  40.5399
 0.210027  40.2799
 0.232135  40.7942
 0.254244  40.5576
 0.276352  39.3711
 0.29846  40.0797
 0.320568  45.0127
 0.342676  50.4016
 0.364784  45.084
 0.386892  40.9066
 0.409  41.3014
 0.431109  39.5721
 0.453217  38.7914
 0.475325  39.141
 0.497433  39.6492
 0.519541  39.1724
 0.541649  39.208
 0.563757  40.0627
 0.585866  40.4979
 0.607974  40.1413
 0.630082  39.9585
 0.65219  40.2755
 0.674298  40.6085
 0.696406  40.406
 0.718514  39.8901
 0.740622  39.5214
 0.762731  39.2644
 0.784839  39.198
 0.806947  39.4558
 0.829055  39.734
 0.851163  40.2649
 0.873271  40.75
 0.895379  40.1035
 0.917488  40.0826
 0.939596  39.8799
 0.961704  39.3607
 0.983812  39.8268
 1.00592  40.5805
 1.02803  41.1901
 1.05014  41.3066
 1.07224  41.0867
 1.09435  41.0985
 1.11646  40.9039
 1.13857  40.5173
 1.16068  40.8559
 1.18279  41.1684
 1.20489  40.9125
 1.227  40.9976
 1.24911  41.1442
 1.27122  41.0551
 1.29333  41.2908
 1.31543  41.6866
 1.33754  41.8566
 1.35965  41.8181
 1.38176  41.7954
 1.40387  41.7249
 1.42597  41.9245
 1.44808  41.7856
 1.47019  42.1711
 1.4923  42.4196
 1.51441  42.8184
 1.53652  43.0248
 1.55862  43.5283
 1.58073  43.6536
 1.60284  43.6968
 1.62495  44.1338
 1.64706  44.429
 1.66916  44.5344
 1.69127  44.3873
 1.71338  44.5763
 1.73549  45.1417
 1.7576  45.8767
 1.7797  46.6714
 1.80181  47.7183
 1.82392  49.1726
 1.84603  51.0066
 1.86814  54.343
 1.89025  62.5254
 1.91235  80.5801
 1.93446  110.054
 1.95657  144.312
 1.97868  179.166
 2.00079  214.819
 2.02289  247.553
 2.045  280.055
 2.06711  313.615
 2.08922  352.309
 2.11133  395.309
 2.13343  442.418
 2.15554  495.258
 2.17765  547.544
 2.19976  591.267
 2.22187  626.652
 2.24398  655.702
 2.26608  681.302
 2.28819  708.434
 2.3103  732.909
 2.33241  755.376
 2.35452  780.401
 2.37662  807.165
 2.39873  833.188
 2.42084  856.622
 2.44295  878.363
 2.46506  897.775
 2.48717  916.568
 2.50927  935.074
 2.53138  953.724
 2.55349  973.646
 2.5756  993.276
 2.59771  1010.23
 2.61981  1027.65
 2.64192  1044.9
 2.66403  1060.57
 2.68614  1077.14
 2.70825  1094.02
 2.73035  1112.13
 2.75246  1126.06
 2.77457  1140.95
 2.79668  1156.83
 2.81879  1170.25
 2.8409  1183.04
 2.863  1197.22
 2.88511  1213.32
 2.90722  1229.47
 2.92933  1240.6
 2.95144  1252.29
 2.97354  1264.94
 2.99565  1277.21
 3.01776  1289.95
 3.03987  1300.16
 3.06198  1309.29
 3.08408  1319.9
 3.10619  1331.46
 3.1283  1342.12
 3.15041  1352.95
 3.17252  1361.3
 3.19463  1369.31
 3.21673  1378.24
 3.23884  1386.85
 3.26095  1396.05
 3.28306  1405.13
 3.30517  1414.19
 3.32727  1420.72
 3.34938  1428.41
 3.37149  1434.83
 3.3936  1441.74
 3.41571  1450.8
 3.43781  1460.63
 3.45992  1468.4
 3.48203  1475.91
 3.50414  1485.92
 3.52625  1491.72
 3.54836  1497.39
 3.57046  1502.96
 3.59257  1510.53
 3.61468  1519.14
 3.63679  1523.19
 3.6589  1527.61
 3.681  1530.09
 3.70311  1536.34
 3.72522  1542.24
 3.74733  1544.63
 3.76944  1550.39
 3.79154  1558.23
 3.81365  1563.9
 3.83576  1566.7
 3.85787  1569.78
 3.87998  1573.85
 3.90209  1580.52
 3.92419  1586.87
 3.9463  1589.96
 3.96841  1592.31
 3.99052  1597.52
 4.01263  1600.77
 4.03473  1602.88
 4.05684  1608.5
 4.07895  1612.84
 4.10106  1613.48
 4.12317  1613.47
 4.14528  1616.57
 4.16738  1621.54
 4.18949  1624.72
 4.2116  1628.63
 4.23371  1629.48
 4.25582  1629.17
 4.27792  1632.17
 4.30003  1635.96
 4.32214  1639.66
 4.34425  1641.07
 4.36636  1643.97
 4.38846  1646.36
 4.41057  1648.07
 4.43268  1649.19
 4.45479  1649.73
 4.4769  1651.69
 4.499  1654.52
 4.52111  1656.09
 4.54322  1656.51
 4.56533  1655.55
 4.58744  1654.43
 4.60955  1655.98
 4.63165  1658.69
 4.65376  1659.61
 4.67587  1658.56
 4.69798  1661.11
 4.72009  1663.75
 4.74219  1665.25
 4.7643  1666.8
 4.78641  1665.46
 4.80852  1665.57
 4.83063  1664.64
 4.85274  1663.94
 4.87484  1665.43
 4.89695  1666
 4.91906  1665.92
 4.94117  1666.75
 4.96328  1667.74
 4.98538  1670.24
 5.00749  1668.51
 5.0296  1667.1
 5.05171  1666.48
 5.07382  1667.34
 5.09592  1668.5
 5.11803  1669.01
 5.14014  1667.92
 5.16225  1668.68
 5.18436  1668.55
 5.20647  1667.82
 5.22857  1666.74
 5.25068  1666.62
 5.27279  1665.43
 5.2949  1665.58
 5.31701  1666.07
 5.33911  1666.84
 5.36122  1665.93
 5.38333  1665.15
 5.40544  1663.99
 5.42755  1662.48
 5.44965  1663.41
 5.47176  1664.23
 5.49387  1664.13
 5.51598  1664.12
 5.53809  1664.51
 5.5602  1663.21
 5.5823  1661.37
 5.60441  1661.26
 5.62652  1660.17
 5.64863  1661.34
 5.67074  1660.22
 5.69284  1661.02
 5.71495  1660.99
 5.73706  1658.41
 5.75917  1656.5
 5.78128  1657.11
 5.80338  1657.8
 5.82549  1657.22
 5.8476  1658.73
 5.86971  1657.99
 5.89182  1656.83
 5.91393  1655.76
 5.93603  1654.06
 5.95814  1652.31
 5.98025  1651.28
 6.00236  1651.36
 6.02447  1652
 6.04657  1653.29
 6.06868  1654.41
 6.09079  1654.19
 6.1129  1651.77
 6.13501  1648.44
 6.15712  1646.76
 6.17922  1646.71
 6.20133  1646.94
 6.22344  1647.76
 6.24555  1647.79
 6.26766  1647.35
 6.28976  1647.51
 6.31187  1647.63
 6.33398  1648.18
 6.35609  1646.59
 6.3782  1644.41
 6.4003  1642.49
 6.42241  1641.42
 6.44452  1641.29
 6.46663  1641.46
 6.48874  1640.97
 6.51085  1640.27
 6.53295  1636.82
 6.55506  1635.01
 6.57717  1636.11
 6.59928  1635.5
 6.62139  1636.11
 6.64349  1636.53
 6.6656  1635.43
 6.68771  1634.53
 6.70982  1633.91
 6.73193  1633.57
 6.75403  1631.76
 6.77614  1630.12
 6.79825  1628.34
 6.82036  1625.53
 6.84247  1624.89
 6.86458  1627.03
 6.88668  1626.71
 6.90879  1625.97
 6.9309  1625.67
 6.95301  1626.2
 6.97512  1627.01
 6.99722  1625.98
 7.01933  1627.05
 7.04144  1625.27
 7.06355  1623.58
 7.08566  1622.91
 7.10776  1622.87
 7.12987  1622.43
 7.15198  1621.43
 7.17409  1620.51
 7.1962  1618.87
 7.21831  1617.55
 7.24041  1616.12
 7.26252  1614.85
 7.28463  1614.28
 7.30674  1615.95
 7.32885  1615.61
 7.35095  1613.32
 7.37306  1613.19
 7.39517  1612.69
 7.41728  1611.94
 7.43939  1612.08
 7.46149  1610.35
 7.4836  1610.12
 7.50571  1608.68
 7.52782  1608.14
 7.54993  1609.36
 7.57204  1610.43
 7.59414  1610.3
 7.61625  1608.71
 7.63836  1606.96
 7.66047  1607.23
 7.68258  1606.22
 7.70468  1604.53
 7.72679  1604.58
 7.7489  1604.28
 7.77101  1603.87
 7.79312  1603.14
 7.81523  1603.64
 7.83733  1603.89
 7.85944  1602.89
 7.88155  1602.86
 7.90366  1602.96
 7.92577  1602.08
 7.94787  1600.34
 7.96998  1601.19
 7.99209  1602.4
 8.0142  1602.79
 8.03631  1601.98
 8.05841  1601.84
 8.08052  1602.1
 8.10263  1600.56
 8.12474  1598.56
 8.14685  1601.16
 8.16895  1602.28
 8.19106  1601.62
 8.21317  1600
 8.23528  1598.65
 8.25739  1599.71
 8.2795  1599.76
 8.3016  1600.79
 8.32371  1603.54
 8.34582  1605.05
 8.36793  1605.52
 8.39004  1607.55
 8.41214  1609.38
 8.43425  1611.17
 8.45636  1616.33
 8.47847  1620.15
 8.50058  1621.11
 8.52269  1619.36
 8.54479  1616.09
 8.5669  1612.83
 8.58901  1610.27
 8.61112  1608.1
 8.63323  1606.49
 8.65533  1604.63
 8.67744  1604.34
 8.69955  1602.81
 8.72166  1600.39
 8.74377  1600.45
 8.76587  1600.08
 8.78798  1601.58
 8.81009  1607.14
 8.8322  1612.88
 8.85431  1619.05
 8.87642  1623.15
 8.89852  1623.1
 8.92063  1623.89
 8.94274  1624.95
 8.96485  1627.58
 8.98696  1635.64
 9.00906  1648.93
 9.03117  1660.2
 9.05328  1658.1
 9.07539  1646.01
 9.0975  1632.01
 9.11961  1617.91
 9.14171  1608.99
 9.16382  1603.75
 9.18593  1599.63
 9.20804  1597.73
 9.23015  1597.65
 9.25225  1597.67
 9.27436  1597.84
 9.29647  1598.34
 9.31858  1597.98
 9.34069  1598.91
 9.36279  1598.52
 9.3849  1597.96
 9.40701  1600.4
 9.42912  1600.96
 9.45123  1600.86
 9.47334  1603.81
 9.49544  1611.66
 9.51755  1623.95
 9.53966  1629.47
 9.56177  1622.47
 9.58388  1614.61
 9.60598  1609.86
 9.62809  1608.45
 9.6502  1610.03
 9.67231  1611.9
 9.69442  1611.55
 9.71652  1613.25
 9.73863  1617.47
 9.76074  1619.87
 9.78285  1622.52
 9.80496  1627.24
 9.82707  1630.96
 9.84917  1633.01
 9.87128  1634.32
 9.89339  1633.21
 9.9155  1630.05
 9.93761  1627.97
 9.95971  1628.84
 9.98182  1630.16
 10.0039  1631.46
 10.026  1631.9
 10.0481  1630.28
 10.0703  1628.37
 10.0924  1628.26
 10.1145  1629.39
 10.1366  1627.74
 10.1587  1624.27
 10.1808  1623.48
 10.2029  1624.64
 10.225  1622.84
 10.2471  1622.75
 10.2692  1624.36
 10.2913  1624.56
 10.3134  1623.06
 10.3356  1624.66
 10.3577  1625.66
 10.3798  1626.25
 10.4019  1627.64
 10.424  1629.13
 10.4461  1632.65
 10.4682  1635.75
 10.4903  1636.38
 10.5124  1640.15
 10.5345  1644.33
 10.5566  1649.33
 10.5787  1656.3
 10.6008  1667.78
 10.623  1680.12
 10.6451  1691.2
 10.6672  1706.09
 10.6893  1730.79
 10.7114  1766.28
 10.7335  1828.9
 10.7556  1973.86
 10.7777  2113.88
 10.7998  2261.73
 10.8219  2397.36
 10.844  2466.73
 10.8661  2444.04
 10.8883  2299.79
 10.9104  2165.77
 10.9325  2110.39
 10.9546  2093.49
 10.9767  2074.39
 10.9988  2036.02
 11.0209  1980.64
 11.043  1902.43
 11.0651  1826.69
 11.0872  1772.35
 11.1093  1735.19
 11.1314  1710.6
 11.1536  1695.32
 11.1757  1685.24
 11.1978  1678.59
 11.2199  1676.35
 11.242  1675.11
 11.2641  1674.38
 11.2862  1674.44
 11.3083  1673.61
 11.3304  1674.47
 11.3525  1676.3
 11.3746  1678.61
 11.3967  1681.83
 11.4189  1685.57
 11.441  1689.97
 11.4631  1693.72
 11.4852  1697.31
 11.5073  1702.33
 11.5294  1709.02
 11.5515  1717.34
 11.5736  1725.03
 11.5957  1732.7
 11.6178  1737.42
 11.6399  1739.41
 11.662  1738.53
 11.6841  1737.48
 11.7063  1733.27
 11.7284  1727.92
 11.7505  1725.51
 11.7726  1720.38
 11.7947  1711.6
 11.8168  1703.73
 11.8389  1697.3
 11.861  1692.71
 11.8831  1688.55
 11.9052  1686.64
 11.9273  1686.82
 11.9494  1687.24
 11.9716  1689.68
 11.9937  1690.97
 12.0158  1691.77
 12.0379  1692.39
 12.06  1693.39
 12.0821  1694.34
 12.1042  1697.53
 12.1263  1702.17
 12.1484  1708.27
 12.1705  1713.25
 12.1926  1719.31
 12.2147  1726.68
 12.2369  1735.62
 12.259  1740.3
 12.2811  1743.78
 12.3032  1748.73
 12.3253  1753.94
 12.3474  1762.79
 12.3695  1778.26
 12.3916  1806.04
 12.4137  1845.93
 12.4358  1891.8
 12.4579  1941.05
 12.48  2005.65
 12.5021  2109.38
 12.5243  2281.81
 12.5464  2485.32
 12.5685  2616.5
 12.5906  2631.41
 12.6127  2572.85
 12.6348  2411.91
 12.6569  2196.32
 12.679  2001.11
 12.7011  1882.75
 12.7232  1804.85
 12.7453  1758.26
 12.7674  1731.16
 12.7896  1716.14
 12.8117  1707.14
 12.8338  1701.11
 12.8559  1697.11
 12.878  1694.19
 12.9001  1690.25
 12.9222  1687.32
 12.9443  1685.55
 12.9664  1684.74
 12.9885  1685.28
 13.0106  1684.67
 13.0327  1683.16
 13.0549  1682.05
 13.077  1680.14
 13.0991  1678.16
 13.1212  1677.46
 13.1433  1676.96
 13.1654  1675.99
 13.1875  1674.54
 13.2096  1674.66
 13.2317  1673.88
 13.2538  1673.01
 13.2759  1674.23
 13.298  1673.2
 13.3201  1671.71
 13.3423  1671.03
 13.3644  1671.13
 13.3865  1672.66
 13.4086  1673.07
 13.4307  1673.41
 13.4528  1674.42
 13.4749  1674.5
 13.497  1676.23
 13.5191  1677.8
 13.5412  1678.32
 13.5633  1677.71
 13.5854  1678.45
 13.6076  1679.86
 13.6297  1679.48
 13.6518  1679.27
 13.6739  1678.56
 13.696  1678.03
 13.7181  1677.76
 13.7402  1678.74
 13.7623  1679.5
 13.7844  1679.06
 13.8065  1679.7
 13.8286  1680.51
 13.8507  1679.71
 13.8729  1679.06
 13.895  1680.87
 13.9171  1681.97
 13.9392  1682.04
 13.9613  1683.83
 13.9834  1687.91
 14.0055  1691.74
 14.0276  1694.71
 14.0497  1697.54
 14.0718  1698.48
 14.0939  1697.64
 14.116  1697.79
 14.1382  1698.07
 14.1603  1697.69
 14.1824  1697.45
 14.2045  1698.05
 14.2266  1696.21
 14.2487  1693.54
 14.2708  1693.28
 14.2929  1692.44
 14.315  1690.25
 14.3371  1688.83
 14.3592  1688.88
 14.3813  1688.38
 14.4034  1689.52
 14.4256  1690.46
 14.4477  1690.24
 14.4698  1690.3
 14.4919  1691.75
 14.514  1692.44
 14.5361  1693.72
 14.5582  1694.76
 14.5803  1694.22
 14.6024  1694.92
 14.6245  1696.07
 14.6466  1696.91
 14.6687  1696.31
 14.6909  1696.38
 14.713  1697.41
 14.7351  1697.95
 14.7572  1698.04
 14.7793  1697.43
 14.8014  1697.49
 14.8235  1697.65
 14.8456  1697.99
 14.8677  1698.25
 14.8898  1699
 14.9119  1700.09
 14.934  1700.21
 14.9562  1699.92
 14.9783  1699.57
 15.0004  1700.36
 15.0225  1702.99
 15.0446  1704.2
 15.0667  1705.36
 15.0888  1706.91
 15.1109  1706.37
 15.133  1706.11
 15.1551  1706.87
 15.1772  1707.44
 15.1993  1708.4
 15.2215  1710.36
 15.2436  1711.79
 15.2657  1713.37
 15.2878  1716.06
 15.3099  1718.79
 15.332  1720.94
 15.3541  1722.83
 15.3762  1724.34
 15.3983  1725.38
 15.4204  1727.04
 15.4425  1727.26
 15.4646  1726.59
 15.4867  1726.38
 15.5089  1727.03
 15.531  1726.05
 15.5531  1725.11
 15.5752  1726.02
 15.5973  1726.52
 15.6194  1728
 15.6415  1729.57
 15.6636  1730.02
 15.6857  1729.73
 15.7078  1731.25
 15.7299  1732.87
 15.752  1731.91
 15.7742  1731.09
 15.7963  1729.38
 15.8184  1729.26
 15.8405  1730.59
 15.8626  1731.67
 15.8847  1731.52
 15.9068  1730.02
 15.9289  1730.07
 15.951  1728.65
 15.9731  1726.64
 15.9952  1724.9
 16.0173  1724.22
 16.0394  1723.31
 16.0616  1723.8
 16.0837  1723.95
 16.1058  1723.07
 16.1279  1722.39
 16.15  1721.81
 16.1721  1722.45
 16.1942  1721.74
 16.2163  1721.47
 16.2384  1722.73
 16.2605  1722.11
 16.2826  1721.86
 16.3047  1721.61
 16.3269  1720.52
 16.349  1719.89
 16.3711  1720.24
 16.3932  1719.8
 16.4153  1719.62
 16.4374  1719.25
 16.4595  1717.98
 16.4816  1717.83
 16.5037  1718.76
 16.5258  1718.15
 16.5479  1718.02
 16.57  1717.69
 16.5922  1717.58
 16.6143  1717.67
 16.6364  1717.21
 16.6585  1716.15
 16.6806  1715.12
 16.7027  1715.38
 16.7248  1716.41
 16.7469  1716.51
 16.769  1716.4
 16.7911  1718.15
 16.8132  1717.48
 16.8353  1715.75
 16.8575  1716.28
 16.8796  1718.58
 16.9017  1721.72
 16.9238  1724.3
 16.9459  1729.49
 16.968  1736.99
 16.9901  1746.29
 17.0122  1756.04
 17.0343  1764.43
 17.0564  1770.44
 17.0785  1773.43
 17.1006  1772.03
 17.1227  1767.04
 17.1449  1760.71
 17.167  1753.03
 17.1891  1744.18
 17.2112  1736.09
 17.2333  1730.84
 17.2554  1727.71
 17.2775  1726.09
 17.2996  1724.78
 17.3217  1722.48
 17.3438  1719.42
 17.3659  1716.93
 17.388  1714.98
 17.4102  1712.47
 17.4323  1711.93
 17.4544  1712.06
 17.4765  1712.52
 17.4986  1712.97
 17.5207  1715.25
 17.5428  1719.09
 17.5649  1721.38
 17.587  1722.41
 17.6091  1725.86
 17.6312  1731.99
 17.6533  1739.01
 17.6755  1748.6
 17.6976  1763.05
 17.7197  1779.97
 17.7418  1797.46
 17.7639  1814.23
 17.786  1830.61
 17.8081  1837.66
 17.8302  1830.22
 17.8523  1818.3
 17.8744  1797.84
 17.8965  1773.44
 17.9186  1755.71
 17.9408  1741.27
 17.9629  1728.32
 17.985  1718.07
 18.0071  1713.19
 18.0292  1712.67
 18.0513  1712.28
 18.0734  1712.49
 18.0955  1713.7
 18.1176  1713.64
 18.1397  1711.49
 18.1618  1708
 18.1839  1703.02
 18.206  1697.78
 18.2282  1691.14
 18.2503  1683.21
 18.2724  1675.47
 18.2945  1670.25
 18.3166  1665.89
 18.3387  1662.68
 18.3608  1658.72
 18.3829  1655.78
 18.405  1653.18
 18.4271  1649.21
 18.4492  1645.62
 18.4713  1643.61
 18.4935  1641.15
 18.5156  1640.31
 18.5377  1637.81
 18.5598  1635.84
 18.5819  1634.7
 18.604  1633.05
 18.6261  1631.6
 18.6482  1628.44
 18.6703  1626.13
 18.6924  1623.48
 18.7145  1620.81
 18.7366  1619.14
 18.7588  1617.07
 18.7809  1615.01
 18.803  1614.09
 18.8251  1614.45
 18.8472  1615.14
 18.8693  1614.15
 18.8914  1610.8
 18.9135  1608.82
 18.9356  1606.51
 18.9577  1604.6
 18.9798  1603.03
 19.0019  1603.45
 19.024  1603.34
 19.0462  1601.74
 19.0683  1599.62
 19.0904  1597.77
 19.1125  1597.2
 19.1346  1596.63
 19.1567  1595.05
 19.1788  1594.3
 19.2009  1593.59
 19.223  1592.88
 19.2451  1590.07
 19.2672  1586.38
 19.2893  1582.71
 19.3115  1579.06
 19.3336  1574.99
 19.3557  1571.42
 19.3778  1567.58
 19.3999  1565.31
 19.422  1562.8
 19.4441  1560.29
 19.4662  1559.38
 19.4883  1559.13
 19.5104  1557.57
 19.5325  1555.21
 19.5546  1552.9
 19.5768  1550.97
 19.5989  1549.1
 19.621  1548.25
 19.6431  1548.25
 19.6652  1547.51
 19.6873  1547.11
 19.7094  1546.02
 19.7315  1544.17
 19.7536  1543.26
 19.7757  1541.1
 19.7978  1540.1
 19.8199  1539.02
 19.842  1537.69
 19.8642  1535.82
 19.8863  1535
 19.9084  1534.59
 19.9305  1534.32
 19.9526  1533.18
 19.9747  1532.87
 19.9968  1533.04
 20.0189  1531.7
 20.041  1530.34
 20.0631  1529.41
 20.0852  1528.64
 20.1073  1527.95
 20.1295  1527.42
 20.1516  1526.06
 20.1737  1524.52
 20.1958  1522.01
 20.2179  1520.15
 20.24  1517.93
 20.2621  1514.64
 20.2842  1513.01
 20.3063  1511.51
 20.3284  1509.3
 20.3505  1507.77
 20.3726  1507.05
 20.3948  1505.26
 20.4169  1504.72
 20.439  1504.38
 20.4611  1503.86
 20.4832  1504.21
 20.5053  1504.17
 20.5274  1504.81
 20.5495  1505.92
 20.5716  1507.29
 20.5937  1510.02
 20.6158  1512.95
 20.6379  1515.74
 20.66  1519.44
 20.6822  1524.96
 20.7043  1531.67
 20.7264  1537.78
 20.7485  1544.4
 20.7706  1550.16
 20.7927  1556.28
 20.8148  1562.81
 20.8369  1570.98
 20.859  1580.84
 20.8811  1590.39
 20.9032  1599.63
 20.9253  1604.45
 20.9475  1600.43
 20.9696  1590.36
 20.9917  1582.41
 21.0138  1574.96
 21.0359  1564.91
 21.058  1554.12
 21.0801  1543.23
 21.1022  1533.28
 21.1243  1526.06
 21.1464  1519.48
 21.1685  1512.25
 21.1906  1503.4
 21.2128  1496.37
 21.2349  1489.53
 21.257  1481.1
 21.2791  1473.82
 21.3012  1470.15
 21.3233  1465.47
 21.3454  1460.72
 21.3675  1457.91
 21.3896  1455.99
 21.4117  1452.92
 21.4338  1449.6
 21.4559  1447.73
 21.478  1445.51
 21.5002  1443.04
 21.5223  1445.68
 21.5444  1463.33
 21.5665  1472.61
 21.5886  1443.62
 21.6107  1433.33
 21.6328  1432.56
 21.6549  1432.52
 21.677  1430.44
 21.6991  1429.55
 21.7212  1428.67
 21.7433  1428.33
 21.7655  1427.71
 21.7876  1426.41
 21.8097  1424.13
 21.8318  1422.3
 21.8539  1421.15
 21.876  1419.27
 21.8981  1416.88
 21.9202  1415.26
 21.9423  1414.54
 21.9644  1413
 21.9865  1411.71
 22.0086  1410.64
 22.0308  1409.27
 22.0529  1407.7
 22.075  1406.02
 22.0971  1403.72
 22.1192  1402.35
 22.1413  1400.97
 22.1634  1399.47
 22.1855  1396.46
 22.2076  1393.21
 22.2297  1391.74
 22.2518  1390.07
 22.2739  1389.23
 22.2961  1386.94
 22.3182  1385.92
 22.3403  1383.72
 22.3624  1382.55
 22.3845  1381.51
 22.4066  1380.32
 22.4287  1377.89
 22.4508  1377.27
 22.4729  1376.71
 22.495  1376.16
 22.5171  1375.81
 22.5392  1373.8
 22.5614  1371.94
 22.5835  1371.47
 22.6056  1370.29
 22.6277  1368.75
 22.6498  1368.58
 22.6719  1367.82
 22.694  1366.23
 22.7161  1363.68
 22.7382  1362.16
 22.7603  1361.35
 22.7824  1359.37
 22.8045  1358.09
 22.8266  1358.05
 22.8488  1355.1
 22.8709  1354.18
 22.893  1352.74
 22.9151  1350.19
 22.9372  1348.77
 22.9593  1348.37
 22.9814  1344.35
 23.0035  1343.71
 23.0256  1343.21
 23.0477  1341.93
 23.0698  1341.09
 23.0919  1340.16
 23.1141  1337.01
 23.1362  1312.21
 23.1583  1235.7
 23.1804  1164.71
 23.2025  1115.22
 23.2246  1085.41
 23.2467  1056.94
 23.2688  1025.78
 23.2909  996.272
 23.313  988.215
 23.3351  972.939
 23.3572  956.869
 23.3794  939.728
 23.4015  925.619
 23.4236  909.944
 23.4457  895.821
 23.4678  882.643
 23.4899  870.306
 23.512  861.07
 23.5341  861.643
 23.5562  856.334
 23.5783  851.7
 23.6004  845.384
 23.6225  840.525
 23.6446  833.222
 23.6668  828.867
 23.6889  823.3
 23.711  819.152
 23.7331  813.815
 23.7552  809.471
 23.7773  806.13
 23.7994  805.294
 23.8215  803.577
 23.8436  801.512
 23.8657  801.666
 23.8878  800.781
 23.9099  801.406
 23.9321  799.702
 23.9542  798.806
 23.9763  797.72
 23.9984  797.815
 24.0205  796.323
 24.0426  796.447
 24.0647  792.259
 24.0868  790.646
 24.1089  786.727
 24.131  781.138
 24.1531  776.422
 24.1752  767.941
 24.1974  759.896
 24.2195  751.698
 24.2416  741.026
 24.2637  731.763
 24.2858  721.515
 24.3079  709.137
 24.33  697.078
 24.3521  683.646
 24.3742  668.687
 24.3963  653.385
 24.4184  637.451
 24.4405  627.622
 24.4626  611.609
 24.4848  591.361
 24.5069  573.877
 24.529  548.068
 24.5511  528.918
 24.5732  494.073
 24.5953  461.96
 24.6174  423.101
 24.6395  396.939
 24.6616  366.155
 24.6837  326.15
 24.7058  274.787
 24.7279  209.244
 24.7501  105.072
 24.7722  18.2837
 24.7943  0.0291688
 24.8164  0.0000000E+00
 24.8385  0.0000000E+00
 24.8606  0.0000000E+00
 24.8827  0.0000000E+00
 24.9048  0.0000000E+00
 24.9269  0.0000000E+00
 24.949  0.0000000E+00
 24.9711  0.0000000E+00
 24.9932  0.0000000E+00
 25.0154  0.0000000E+00
 25.0375  0.0000000E+00
 25.0596  0.0000000E+00
 25.0817  0.0000000E+00
 25.1038  0.0000000E+00
 25.1259  0.0000000E+00
 25.148  0.0000000E+00
 25.1701  0.0000000E+00
 25.1922  0.0000000E+00
 25.2143  0.0000000E+00
 25.2364  0.0000000E+00
 25.2585  0.0000000E+00
 25.2806  0.0000000E+00
 25.3028  0.0000000E+00
 25.3249  0.0000000E+00
 25.347  0.0000000E+00
 25.3691  0.0000000E+00
 25.3912  0.0000000E+00
 25.4133  0.0000000E+00
 25.4354  0.0000000E+00
 25.4575  0.0000000E+00
 25.4796  0.0000000E+00
 25.5017  0.0000000E+00
 25.5238  0.0000000E+00
 25.5459  0.0000000E+00
 25.5681  0.0000000E+00
 25.5902  0.0000000E+00
 25.6123  0.0000000E+00
 25.6344  0.0000000E+00
 25.6565  0.0000000E+00
 25.6786  0.0000000E+00
 25.7007  0.0000000E+00
 25.7228  0.0000000E+00
 25.7449  0.0000000E+00
 25.767  0.0000000E+00
 25.7891  0.0000000E+00
 25.8112  0.0000000E+00
 25.8334  0.0000000E+00
 25.8555  0.0000000E+00
 25.8776  0.0000000E+00
 25.8997  0.0000000E+00
 25.9218  0.0000000E+00
 25.9439  0.0000000E+00
 25.966  0.0000000E+00
 25.9881  0.0000000E+00
 26.0102  0.0000000E+00
 26.0323  0.0000000E+00
 26.0544  0.0000000E+00
 26.0765  0.0000000E+00
 26.0986  0.0000000E+00
 26.1208  0.0000000E+00
 26.1429  0.0000000E+00
 26.165  0.0000000E+00
 26.1871  0.0000000E+00
 26.2092  0.0000000E+00
 26.2313  0.0000000E+00
 26.2534  0.0000000E+00
 26.2755  0.0000000E+00
 26.2976  0.0000000E+00
 26.3197  0.0000000E+00
 26.3418  0.0000000E+00
 26.3639  0.0000000E+00
 26.3861  0.0000000E+00
 26.4082  0.0000000E+00
 26.4303  0.0000000E+00
 26.4524  0.0000000E+00
 26.4745  0.0000000E+00
 26.4966  0.0000000E+00
 26.5187  0.0000000E+00
 26.5408  0.0000000E+00
 26.5629  0.0000000E+00
 26.585  0.0000000E+00
 26.6071  0.0000000E+00
 26.6292  0.0000000E+00
 26.6514  0.0000000E+00
 26.6735  0.0000000E+00
 26.6956  0.0000000E+00
 26.7177  0.0000000E+00
 26.7398  0.0000000E+00
 26.7619  0.0000000E+00
 26.784  0.0000000E+00
 26.8061  0.0000000E+00
 26.8282  0.0000000E+00
 26.8503  0.0000000E+00
 26.8724  0.0000000E+00
 26.8945  0.0000000E+00
 26.9167  0.0000000E+00
 26.9388  0.0000000E+00
 26.9609  0.0000000E+00
 26.983  0.0000000E+00
 27.0051  0.0000000E+00
 27.0272  0.0000000E+00
 27.0493  0.0000000E+00
 27.0714  0.0000000E+00
 27.0935  0.0000000E+00
 27.1156  0.0000000E+00
 27.1377  0.0000000E+00
 27.1598  0.0000000E+00
 27.182  0.0000000E+00
 27.2041  0.0000000E+00
 27.2262  0.0000000E+00
 27.2483  0.0000000E+00
 27.2704  0.0000000E+00
 27.2925  0.0000000E+00
 27.3146  0.0000000E+00
 27.3367  0.0000000E+00
 27.3588  0.0000000E+00
 27.3809  0.0000000E+00
 27.403  0.0000000E+00
 27.4251  0.0000000E+00
 27.4472  0.0000000E+00
 27.4694  0.0000000E+00
 27.4915  0.0000000E+00
 27.5136  0.0000000E+00
 27.5357  0.0000000E+00
 27.5578  0.0000000E+00
 27.5799  0.0000000E+00
 27.602  0.0000000E+00
 27.6241  0.0000000E+00
 27.6462  0.0000000E+00
 27.6683  0.0000000E+00
 27.6904  0.0000000E+00
 27.7125  0.0000000E+00
 27.7347  0.0000000E+00
 27.7568  0.0000000E+00
 27.7789  0.0000000E+00
 27.801  0.0000000E+00
 27.8231  0.0000000E+00
 27.8452  0.0000000E+00
 27.8673  0.0000000E+00
 27.8894  0.0000000E+00
 27.9115  0.0000000E+00
 27.9336  0.0000000E+00
 27.9557  0.0000000E+00
 27.9778  0.0000000E+00
 27.9999  0.0000000E+00
 28.0221  0.0000000E+00
 28.0442  0.0000000E+00
 28.0663  0.0000000E+00
 28.0884  0.0000000E+00
 28.1105  0.0000000E+00
 28.1326  0.0000000E+00
 28.1547  0.0000000E+00
 28.1768  0.0000000E+00
 28.1989  0.0000000E+00
 28.221  0.0000000E+00
 28.2431  0.0000000E+00
 28.2652  0.0000000E+00
 28.2874  0.0000000E+00
 28.3095  0.0000000E+00
 28.3316  0.0000000E+00
 28.3537  0.0000000E+00
 28.3758  0.0000000E+00
 28.3979  0.0000000E+00
 28.42  0.0000000E+00
 28.4421  0.0000000E+00
 28.4642  0.0000000E+00
 28.4863  0.0000000E+00
 28.5084  0.0000000E+00
 28.5305  0.0000000E+00
 28.5527  0.0000000E+00
 28.5748  0.0000000E+00
 28.5969  0.0000000E+00
 28.619  0.0000000E+00
 28.6411  0.0000000E+00
 28.6632  0.0000000E+00
 28.6853  0.0000000E+00
 28.7074  0.0000000E+00
 28.7295  0.0000000E+00
 28.7516  0.0000000E+00
 28.7737  0.0000000E+00
 28.7958  0.0000000E+00
 28.818  0.0000000E+00
 28.8401  0.0000000E+00
 28.8622  0.0000000E+00
 28.8843  0.0000000E+00
 28.9064  0.0000000E+00
 28.9285  0.0000000E+00
 28.9506  0.0000000E+00
 28.9727  0.0000000E+00
 28.9948  0.0000000E+00
 29.0169  0.0000000E+00
 29.039  0.0000000E+00
 29.0611  0.0000000E+00
 29.0832  0.0000000E+00
 29.1054  0.0000000E+00
 29.1275  0.0000000E+00
 29.1496  0.0000000E+00
 29.1717  0.0000000E+00
 29.1938  0.0000000E+00
 29.2159  0.0000000E+00
 29.238  0.0000000E+00
 29.2601  0.0000000E+00
 29.2822  0.0000000E+00
 29.3043  0.0000000E+00
 29.3264  0.0000000E+00
 29.3485  0.0000000E+00
 29.3707  0.0000000E+00
 29.3928  0.0000000E+00
 29.4149  0.0000000E+00
 29.437  0.0000000E+00
 29.4591  0.0000000E+00
 29.4812  0.0000000E+00
 29.5033  0.0000000E+00
 29.5254  0.0000000E+00
 29.5475  0.0000000E+00
 29.5696  0.0000000E+00
 29.5917  0.0000000E+00
 29.6138  0.0000000E+00
 29.636  0.0000000E+00
 29.6581  0.0000000E+00
 29.6802  0.0000000E+00
 29.7023  0.0000000E+00
 29.7244  0.0000000E+00
 29.7465  0.0000000E+00
 29.7686  0.0000000E+00
 29.7907  0.0000000E+00
 29.8128  0.0000000E+00
 29.8349  0.0000000E+00
 29.857  0.0000000E+00
 29.8791  0.0000000E+00
 29.9012  0.0000000E+00
 29.9234  0.0000000E+00
 29.9455  0.0000000E+00
 29.9676  0.0000000E+00
 29.9897  0.0000000E+00
 30.0118  0.0000000E+00
 30.0339  0.0000000E+00
 30.056  0.0000000E+00
 30.0781  0.0000000E+00
 30.1002  0.0000000E+00
 30.1223  0.0000000E+00
 30.1444  0.0000000E+00
 30.1665  0.0000000E+00
 30.1887  0.0000000E+00
 30.2108  0.0000000E+00
 30.2329  0.0000000E+00
 30.255  0.0000000E+00
 30.2771  0.0000000E+00
 30.2992  0.0000000E+00
 30.3213  0.0000000E+00
 30.3434  0.0000000E+00
 30.3655  0.0000000E+00
 30.3876  0.0000000E+00
 30.4097  0.0000000E+00
 30.4318  0.0000000E+00
 30.454  0.0000000E+00
 30.4761  0.0000000E+00
 30.4982  0.0000000E+00
 30.5203  0.0000000E+00
 30.5424  0.0000000E+00
 30.5645  0.0000000E+00
 30.5866  0.0000000E+00
 30.6087  0.0000000E+00
 30.6308  0.0000000E+00
 30.6529  0.0000000E+00
 30.675  0.0000000E+00
 30.6971  0.0000000E+00
 30.7192  0.0000000E+00
 30.7414  0.0000000E+00
 30.7635  0.0000000E+00
 30.7856  0.0000000E+00
 30.8077  0.0000000E+00
 30.8298  0.0000000E+00
 30.8519  0.0000000E+00
 30.874  0.0000000E+00
 30.8961  0.0000000E+00
 30.9182  0.0000000E+00
 30.9403  0.0000000E+00
 30.9624  0.0000000E+00
 30.9845  0.0000000E+00
 31.0067  0.0000000E+00
 31.0288  0.0000000E+00
 31.0509  0.0000000E+00
 31.073  0.0000000E+00
 31.0951  0.0000000E+00
 31.1172  0.0000000E+00
 31.1393  0.0000000E+00
 31.1614  0.0000000E+00
 31.1835  0.0000000E+00
 31.2056  0.0000000E+00
 31.2277  0.0000000E+00
 31.2498  0.0000000E+00
 31.272  0.0000000E+00
 31.2941  0.0000000E+00
 31.3162  0.0000000E+00
 31.3383  0.0000000E+00
 31.3604  0.0000000E+00
 31.3825  0.0000000E+00
 31.4046  0.0000000E+00
 31.4267  0.0000000E+00
 31.4488  0.0000000E+00
 31.4709  0.0000000E+00
 31.493  0.0000000E+00
 31.5151  0.0000000E+00
 31.5373  0.0000000E+00
 31.5594  0.0000000E+00
 31.5815  0.0000000E+00
 31.6036  0.0000000E+00
 31.6257  0.0000000E+00
 31.6478  0.0000000E+00
 31.6699  0.0000000E+00
 31.692  0.0000000E+00
 31.7141  0.0000000E+00
 31.7362  0.0000000E+00
 31.7583  0.0000000E+00
 31.7804  0.0000000E+00
 31.8025  0.0000000E+00
 31.8247  0.0000000E+00
 31.8468  0.0000000E+00
 31.8689  0.0000000E+00
 31.891  0.0000000E+00
 31.9131  0.0000000E+00
 31.9352  0.0000000E+00
 31.9573  0.0000000E+00
 31.9794  0.0000000E+00
 32.0015  0.0000000E+00
 32.0236  0.0000000E+00
 32.0457  0.0000000E+00
 32.0678  0.0000000E+00
 32.09  0.0000000E+00
 32.1121  0.0000000E+00
 32.1342  0.0000000E+00
 32.1563  0.0000000E+00
 32.1784  0.0000000E+00
 32.2005  0.0000000E+00
 32.2226  0.0000000E+00
 32.2447  0.0000000E+00
 32.2668  0.0000000E+00
 32.2889  0.0000000E+00
 32.311  0.0000000E+00
 32.3331  0.0000000E+00
 32.3553  0.0000000E+00
 32.3774  0.0000000E+00
 32.3995  0.0000000E+00
 32.4216  0.0000000E+00
 32.4437  0.0000000E+00
 32.4658  0.0000000E+00
 32.4879  0.0000000E+00
 32.51  0.0000000E+00
 32.5321  0.0000000E+00
 32.5542  0.0000000E+00
 32.5763  0.0000000E+00
 32.5984  0.0000000E+00
 32.6205  0.0000000E+00
 32.6427  0.0000000E+00
 32.6648  0.0000000E+00
 32.6869  0.0000000E+00
 32.709  0.0000000E+00
 32.7311  0.0000000E+00