File: BA_14.chi
D:\DATA\UserData\CuiTian20190403\CWH\BA\BA_14.tif: 2-theta Scan
2-Theta Angle (Degrees)
Intensity
       1481
 0.0110541  41.325
 0.0331622  40.5115
 0.0552703  42.5577
 0.0773785  42.8198
 0.0994866  41.9502
 0.121595  40.438
 0.143703  39.4624
 0.165811  39.3275
 0.187919  39.4944
 0.210027  39.7487
 0.232135  40.0821
 0.254244  40.6478
 0.276352  40.0778
 0.29846  39.9487
 0.320568  39.8528
 0.342676  40.0287
 0.364784  40.6067
 0.386892  40.4193
 0.409  40.1796
 0.431109  40.2586
 0.453217  39.6446
 0.475325  39.3887
 0.497433  39.8217
 0.519541  40.134
 0.541649  39.5288
 0.563757  39.0226
 0.585866  38.883
 0.607974  39.3066
 0.630082  40.1731
 0.65219  39.9138
 0.674298  39.258
 0.696406  39.4959
 0.718514  39.6087
 0.740622  39.6125
 0.762731  39.0643
 0.784839  38.8616
 0.806947  39.4467
 0.829055  40.1982
 0.851163  40.2653
 0.873271  40.4274
 0.895379  40.6367
 0.917488  40.9905
 0.939596  41.2864
 0.961704  40.8835
 0.983812  40.481
 1.00592  39.7637
 1.02803  39.68
 1.05014  40.5431
 1.07224  40.9086
 1.09435  40.8952
 1.11646  41.0972
 1.13857  40.9407
 1.16068  40.5863
 1.18279  40.4479
 1.20489  40.6283
 1.227  40.9615
 1.24911  41.0125
 1.27122  41.1001
 1.29333  41.0706
 1.31543  41.3894
 1.33754  41.7386
 1.35965  42.1539
 1.38176  42.3527
 1.40387  42.576
 1.42597  43.0232
 1.44808  43.0568
 1.47019  42.9125
 1.4923  42.6348
 1.51441  42.9129
 1.53652  42.7755
 1.55862  42.7822
 1.58073  43.2297
 1.60284  43.4798
 1.62495  43.7772
 1.64706  44.3409
 1.66916  44.4394
 1.69127  44.5324
 1.71338  45.0517
 1.73549  45.7791
 1.7576  46.3039
 1.7797  46.799
 1.80181  47.3386
 1.82392  48.334
 1.84603  50.1814
 1.86814  53.5815
 1.89025  61.7122
 1.91235  79.4304
 1.93446  108.247
 1.95657  142.584
 1.97868  178.312
 2.00079  213.502
 2.02289  247.102
 2.045  280.061
 2.06711  313.205
 2.08922  350.949
 2.11133  391.586
 2.13343  438.305
 2.15554  490.85
 2.17765  541.942
 2.19976  581.89
 2.22187  616.146
 2.24398  647.059
 2.26608  676.319
 2.28819  702.847
 2.3103  725.306
 2.33241  747.625
 2.35452  771.141
 2.37662  795.248
 2.39873  818.425
 2.42084  840.077
 2.44295  863.129
 2.46506  885.44
 2.48717  908.267
 2.50927  927.62
 2.53138  947.87
 2.55349  966.842
 2.5756  981.795
 2.59771  998.406
 2.61981  1016.47
 2.64192  1032.29
 2.66403  1047.5
 2.68614  1064.49
 2.70825  1080.85
 2.73035  1099.44
 2.75246  1114.54
 2.77457  1127.63
 2.79668  1141.73
 2.81879  1159.45
 2.8409  1175.23
 2.863  1186.36
 2.88511  1197.16
 2.90722  1211.05
 2.92933  1225.25
 2.95144  1238.44
 2.97354  1249.82
 2.99565  1260.19
 3.01776  1270.89
 3.03987  1281.72
 3.06198  1293.21
 3.08408  1301.24
 3.10619  1314.19
 3.1283  1328.41
 3.15041  1339.58
 3.17252  1348.07
 3.19463  1357.18
 3.21673  1365.88
 3.23884  1374.13
 3.26095  1381.87
 3.28306  1385.73
 3.30517  1393.8
 3.32727  1400.41
 3.34938  1406.3
 3.37149  1414.32
 3.3936  1425.15
 3.41571  1433.64
 3.43781  1441.17
 3.45992  1449.26
 3.48203  1456.22
 3.50414  1462.66
 3.52625  1468.48
 3.54836  1477.07
 3.57046  1485.33
 3.59257  1492.28
 3.61468  1495.53
 3.63679  1501.6
 3.6589  1508.12
 3.681  1512.93
 3.70311  1517.01
 3.72522  1520.99
 3.74733  1524.84
 3.76944  1529.02
 3.79154  1534.96
 3.81365  1541.19
 3.83576  1547.17
 3.85787  1551.08
 3.87998  1555.26
 3.90209  1558.46
 3.92419  1562.48
 3.9463  1566.79
 3.96841  1571.22
 3.99052  1574.57
 4.01263  1577.59
 4.03473  1582.34
 4.05684  1586.97
 4.07895  1588.13
 4.10106  1590.12
 4.12317  1593.14
 4.14528  1596.38
 4.16738  1600.46
 4.18949  1605.1
 4.2116  1605.6
 4.23371  1604.94
 4.25582  1606.28
 4.27792  1608.48
 4.30003  1611.58
 4.32214  1615.35
 4.34425  1617.9
 4.36636  1620.69
 4.38846  1624.14
 4.41057  1625.49
 4.43268  1623.95
 4.45479  1625.36
 4.4769  1627.68
 4.499  1630.64
 4.52111  1631.44
 4.54322  1631.97
 4.56533  1635.16
 4.58744  1635.95
 4.60955  1636.04
 4.63165  1634.62
 4.65376  1635.47
 4.67587  1636.33
 4.69798  1638.13
 4.72009  1638.7
 4.74219  1638.48
 4.7643  1641.79
 4.78641  1642.02
 4.80852  1641.69
 4.83063  1642.53
 4.85274  1641.24
 4.87484  1641.08
 4.89695  1642.84
 4.91906  1645.51
 4.94117  1644.51
 4.96328  1642.66
 4.98538  1643.59
 5.00749  1643.1
 5.0296  1644.16
 5.05171  1645.07
 5.07382  1645.84
 5.09592  1644.64
 5.11803  1644.83
 5.14014  1648.21
 5.16225  1647.15
 5.18436  1647.53
 5.20647  1647.48
 5.22857  1645.56
 5.25068  1643.6
 5.27279  1641.3
 5.2949  1641.83
 5.31701  1642.14
 5.33911  1642.41
 5.36122  1643.73
 5.38333  1645.94
 5.40544  1645.22
 5.42755  1644.32
 5.44965  1642.73
 5.47176  1641.47
 5.49387  1640.97
 5.51598  1641.09
 5.53809  1640.72
 5.5602  1640.19
 5.5823  1640.02
 5.60441  1638.28
 5.62652  1637.17
 5.64863  1636.61
 5.67074  1635.41
 5.69284  1636.32
 5.71495  1637.41
 5.73706  1638.59
 5.75917  1637.22
 5.78128  1636.24
 5.80338  1635.02
 5.82549  1632.67
 5.8476  1633.63
 5.86971  1633.04
 5.89182  1632.72
 5.91393  1633.29
 5.93603  1631.86
 5.95814  1631.29
 5.98025  1630.43
 6.00236  1630.58
 6.02447  1630.93
 6.04657  1631.36
 6.06868  1629.31
 6.09079  1624.83
 6.1129  1622.47
 6.13501  1624.58
 6.15712  1625.67
 6.17922  1625.08
 6.20133  1623.4
 6.22344  1622.65
 6.24555  1622.78
 6.26766  1623.15
 6.28976  1625.99
 6.31187  1624.06
 6.33398  1621.62
 6.35609  1620.7
 6.3782  1618.66
 6.4003  1617.42
 6.42241  1617.78
 6.44452  1617.24
 6.46663  1616.41
 6.48874  1617.43
 6.51085  1618.44
 6.53295  1617.37
 6.55506  1615.42
 6.57717  1614.36
 6.59928  1614.56
 6.62139  1615.2
 6.64349  1614.17
 6.6656  1611.95
 6.68771  1610.54
 6.70982  1609.23
 6.73193  1609.37
 6.75403  1609.46
 6.77614  1608.5
 6.79825  1607.89
 6.82036  1607.34
 6.84247  1606.88
 6.86458  1605.43
 6.88668  1604.35
 6.90879  1605.63
 6.9309  1604.58
 6.95301  1603.24
 6.97512  1605.22
 6.99722  1605.22
 7.01933  1604.73
 7.04144  1602.88
 7.06355  1600.98
 7.08566  1601.1
 7.10776  1600.86
 7.12987  1599.4
 7.15198  1597.83
 7.17409  1597.32
 7.1962  1598.42
 7.21831  1598.08
 7.24041  1596.77
 7.26252  1596.74
 7.28463  1595.36
 7.30674  1593.44
 7.32885  1593.09
 7.35095  1591.97
 7.37306  1591.69
 7.39517  1591.8
 7.41728  1590.71
 7.43939  1589.89
 7.46149  1587.87
 7.4836  1587.68
 7.50571  1588.51
 7.52782  1589.29
 7.54993  1589.84
 7.57204  1588.54
 7.59414  1587.41
 7.61625  1586.28
 7.63836  1584.74
 7.66047  1584.79
 7.68258  1585.98
 7.70468  1585.16
 7.72679  1584.22
 7.7489  1582.96
 7.77101  1582.58
 7.79312  1583.67
 7.81523  1583.66
 7.83733  1581.96
 7.85944  1581.26
 7.88155  1581.34
 7.90366  1582.22
 7.92577  1582.69
 7.94787  1582.36
 7.96998  1583.41
 7.99209  1581.84
 8.0142  1579.74
 8.03631  1578.08
 8.05841  1578.73
 8.08052  1579.42
 8.10263  1580.65
 8.12474  1580.67
 8.14685  1579.93
 8.16895  1581.71
 8.19106  1582.76
 8.21317  1581.87
 8.23528  1581.64
 8.25739  1582.13
 8.2795  1582.81
 8.3016  1584.92
 8.32371  1589.11
 8.34582  1593.34
 8.36793  1596.71
 8.39004  1600.83
 8.41214  1601.47
 8.43425  1599.02
 8.45636  1597.94
 8.47847  1596.5
 8.50058  1593.03
 8.52269  1589.42
 8.54479  1585.83
 8.5669  1583.78
 8.58901  1583.31
 8.61112  1582.2
 8.63323  1580.38
 8.65533  1580.2
 8.67744  1581.74
 8.69955  1583.95
 8.72166  1585.55
 8.74377  1588.51
 8.76587  1589.83
 8.78798  1590.3
 8.81009  1591.54
 8.8322  1593.3
 8.85431  1596.14
 8.87642  1601.12
 8.89852  1607
 8.92063  1613.2
 8.94274  1616.45
 8.96485  1614.74
 8.98696  1607.95
 9.00906  1599.28
 9.03117  1591.57
 9.05328  1585.61
 9.07539  1582.23
 9.0975  1581.74
 9.11961  1580.15
 9.14171  1578.51
 9.16382  1578.96
 9.18593  1578.5
 9.20804  1577.74
 9.23015  1577.2
 9.25225  1575.51
 9.27436  1576.75
 9.29647  1577.14
 9.31858  1576.66
 9.34069  1575.87
 9.36279  1577.01
 9.3849  1579.89
 9.40701  1581.36
 9.42912  1581.5
 9.45123  1580.88
 9.47334  1582.01
 9.49544  1584.35
 9.51755  1586.23
 9.53966  1590.18
 9.56177  1594.07
 9.58388  1594.34
 9.60598  1593.46
 9.62809  1592.97
 9.6502  1592.87
 9.67231  1595.92
 9.69442  1598.9
 9.71652  1601.11
 9.73863  1602.67
 9.76074  1602.74
 9.78285  1601.61
 9.80496  1601.4
 9.82707  1599.86
 9.84917  1598.25
 9.87128  1597.61
 9.89339  1598.76
 9.9155  1601.43
 9.93761  1605.37
 9.95971  1608.79
 9.98182  1608.34
 10.0039  1608.75
 10.026  1609.01
 10.0481  1608.47
 10.0703  1606.45
 10.0924  1605.18
 10.1145  1603.08
 10.1366  1601.26
 10.1587  1601.46
 10.1808  1603.47
 10.2029  1604.55
 10.225  1607.02
 10.2471  1607.98
 10.2692  1607.13
 10.2913  1608.17
 10.3134  1610.6
 10.3356  1612.87
 10.3577  1614.67
 10.3798  1617.35
 10.4019  1621.5
 10.424  1625.28
 10.4461  1630.12
 10.4682  1637.02
 10.4903  1643.91
 10.5124  1651.97
 10.5345  1663.41
 10.5566  1679.91
 10.5787  1702.8
 10.6008  1735.68
 10.623  1776.69
 10.6451  1819.73
 10.6672  1854.91
 10.6893  1884.36
 10.7114  1918.16
 10.7335  1955.96
 10.7556  1978.13
 10.7777  1975.58
 10.7998  1960.9
 10.8219  1951.05
 10.844  1947.61
 10.8661  1939.91
 10.8883  1918.68
 10.9104  1884.34
 10.9325  1842.35
 10.9546  1800.42
 10.9767  1759.74
 10.9988  1721.56
 11.0209  1695.54
 11.043  1680.79
 11.0651  1671.3
 11.0872  1664.29
 11.1093  1660.42
 11.1314  1657.07
 11.1536  1654.35
 11.1757  1653.4
 11.1978  1654.83
 11.2199  1656.15
 11.242  1656.13
 11.2641  1656.92
 11.2862  1658.37
 11.3083  1658.91
 11.3304  1661.24
 11.3525  1663.05
 11.3746  1663.2
 11.3967  1665.25
 11.4189  1669.42
 11.441  1671.8
 11.4631  1673.69
 11.4852  1676.8
 11.5073  1681.93
 11.5294  1688.09
 11.5515  1694.45
 11.5736  1699.81
 11.5957  1703.78
 11.6178  1706.06
 11.6399  1706.29
 11.662  1704.04
 11.6841  1701.86
 11.7063  1697.79
 11.7284  1690.99
 11.7505  1685.16
 11.7726  1680.34
 11.7947  1677.94
 11.8168  1679.93
 11.8389  1682.54
 11.861  1684.6
 11.8831  1684.93
 11.9052  1684.39
 11.9273  1681.6
 11.9494  1676.87
 11.9716  1675.35
 11.9937  1675.26
 12.0158  1676.1
 12.0379  1677.27
 12.06  1679.24
 12.0821  1681.21
 12.1042  1684.08
 12.1263  1687.57
 12.1484  1692.4
 12.1705  1697.92
 12.1926  1704.61
 12.2147  1712.79
 12.2369  1726.77
 12.259  1746.92
 12.2811  1771.92
 12.3032  1803.53
 12.3253  1837.75
 12.3474  1873.53
 12.3695  1911.62
 12.3916  1957.89
 12.4137  2012.08
 12.4358  2064.99
 12.4579  2108
 12.48  2128.08
 12.5021  2106.81
 12.5243  2041.19
 12.5464  1955.23
 12.5685  1869.41
 12.5906  1801.14
 12.6127  1754.01
 12.6348  1724.73
 12.6569  1705.47
 12.679  1691.67
 12.7011  1683.51
 12.7232  1677.65
 12.7453  1674.23
 12.7674  1670.59
 12.7896  1667.99
 12.8117  1665.85
 12.8338  1664.27
 12.8559  1662.95
 12.878  1662.16
 12.9001  1660.39
 12.9222  1658.46
 12.9443  1656.54
 12.9664  1654.79
 12.9885  1654.11
 13.0106  1653.71
 13.0327  1653
 13.0549  1650.77
 13.077  1648.67
 13.0991  1648.65
 13.1212  1648.48
 13.1433  1648.91
 13.1654  1649.41
 13.1875  1648.46
 13.2096  1648.59
 13.2317  1647.29
 13.2538  1645.65
 13.2759  1646.55
 13.298  1647.84
 13.3201  1647.69
 13.3423  1647.04
 13.3644  1647.67
 13.3865  1648.7
 13.4086  1649.24
 13.4307  1649.79
 13.4528  1649.41
 13.4749  1649.41
 13.497  1650.62
 13.5191  1651.75
 13.5412  1651.27
 13.5633  1651.31
 13.5854  1651.36
 13.6076  1652.4
 13.6297  1652.9
 13.6518  1654.81
 13.6739  1655
 13.696  1654.46
 13.7181  1653.78
 13.7402  1654.03
 13.7623  1655.66
 13.7844  1657.04
 13.8065  1658.8
 13.8286  1660.6
 13.8507  1660.95
 13.8729  1662.69
 13.895  1664.71
 13.9171  1666.6
 13.9392  1668.11
 13.9613  1668.64
 13.9834  1666.56
 14.0055  1664.55
 14.0276  1662.59
 14.0497  1663.38
 14.0718  1664.54
 14.0939  1665.02
 14.116  1666.43
 14.1382  1665.95
 14.1603  1664.22
 14.1824  1664.35
 14.2045  1664.88
 14.2266  1664.81
 14.2487  1664.76
 14.2708  1665.75
 14.2929  1665.67
 14.315  1664.5
 14.3371  1664.13
 14.3592  1663.75
 14.3813  1664.46
 14.4034  1665.25
 14.4256  1667.22
 14.4477  1670
 14.4698  1670.85
 14.4919  1671.16
 14.514  1670.09
 14.5361  1669.04
 14.5582  1669.49
 14.5803  1669.88
 14.6024  1670.78
 14.6245  1671.23
 14.6466  1671.49
 14.6687  1671.63
 14.6909  1673.09
 14.713  1674.52
 14.7351  1674
 14.7572  1673.1
 14.7793  1675.16
 14.8014  1677.15
 14.8235  1677.07
 14.8456  1675.79
 14.8677  1675.78
 14.8898  1675.97
 14.9119  1677.28
 14.934  1678.38
 14.9562  1678.94
 14.9783  1679.67
 15.0004  1680.49
 15.0225  1682.14
 15.0446  1682.46
 15.0667  1683.16
 15.0888  1684.79
 15.1109  1684.39
 15.133  1684.98
 15.1551  1686.16
 15.1772  1687.74
 15.1993  1690.59
 15.2215  1692.47
 15.2436  1694.27
 15.2657  1695.94
 15.2878  1696.87
 15.3099  1698.19
 15.332  1697.51
 15.3541  1695.84
 15.3762  1696.05
 15.3983  1696.08
 15.4204  1696.94
 15.4425  1697.03
 15.4646  1696.91
 15.4867  1697.48
 15.5089  1697.57
 15.531  1698.08
 15.5531  1700.45
 15.5752  1701.73
 15.5973  1701.4
 15.6194  1702.23
 15.6415  1702.18
 15.6636  1702.18
 15.6857  1701.77
 15.7078  1701.98
 15.7299  1701.47
 15.752  1701.79
 15.7742  1701.04
 15.7963  1699.14
 15.8184  1699.21
 15.8405  1699.48
 15.8626  1701.81
 15.8847  1704.27
 15.9068  1705.12
 15.9289  1705.59
 15.951  1703.81
 15.9731  1702.82
 15.9952  1703.65
 16.0173  1703.31
 16.0394  1701.35
 16.0616  1701.03
 16.0837  1700.9
 16.1058  1701.11
 16.1279  1700.07
 16.15  1698.12
 16.1721  1698.45
 16.1942  1699.51
 16.2163  1698.65
 16.2384  1697.71
 16.2605  1697.86
 16.2826  1698.04
 16.3047  1698.4
 16.3269  1697.74
 16.349  1697.69
 16.3711  1698.55
 16.3932  1697.36
 16.4153  1697.05
 16.4374  1697.26
 16.4595  1696.48
 16.4816  1695.94
 16.5037  1695.39
 16.5258  1695.16
 16.5479  1694.71
 16.57  1694.12
 16.5922  1694.81
 16.6143  1696.03
 16.6364  1695.57
 16.6585  1695.11
 16.6806  1695.22
 16.7027  1694.83
 16.7248  1696.93
 16.7469  1698.01
 16.769  1698.26
 16.7911  1699.14
 16.8132  1700.9
 16.8353  1704.35
 16.8575  1710.19
 16.8796  1717.1
 16.9017  1727.08
 16.9238  1738.98
 16.9459  1750.27
 16.968  1759.06
 16.9901  1762.14
 17.0122  1761.25
 17.0343  1757.59
 17.0564  1750.9
 17.0785  1742.06
 17.1006  1731.96
 17.1227  1721.2
 17.1449  1713.9
 17.167  1706.88
 17.1891  1700.9
 17.2112  1697.49
 17.2333  1695.62
 17.2554  1695.24
 17.2775  1696.04
 17.2996  1696.73
 17.3217  1696.92
 17.3438  1695.74
 17.3659  1697.41
 17.388  1700.28
 17.4102  1703.36
 17.4323  1707.2
 17.4544  1712.61
 17.4765  1719.41
 17.4986  1725.54
 17.5207  1732.73
 17.5428  1740.83
 17.5649  1747.44
 17.587  1752.85
 17.6091  1758.86
 17.6312  1762.51
 17.6533  1758.96
 17.6755  1749.04
 17.6976  1737.3
 17.7197  1726.81
 17.7418  1714.32
 17.7639  1703.81
 17.786  1695.7
 17.8081  1689.9
 17.8302  1686.62
 17.8523  1684.37
 17.8744  1682.9
 17.8965  1682.18
 17.9186  1681.27
 17.9408  1679.46
 17.9629  1676.78
 17.985  1674.01
 18.0071  1670.92
 18.0292  1666.9
 18.0513  1662.36
 18.0734  1658.66
 18.0955  1656.68
 18.1176  1653.42
 18.1397  1649.72
 18.1618  1646.77
 18.1839  1645.17
 18.206  1643.76
 18.2282  1641.3
 18.2503  1637.96
 18.2724  1635.27
 18.2945  1633.67
 18.3166  1630.98
 18.3387  1629.18
 18.3608  1627.26
 18.3829  1625.11
 18.405  1624.29
 18.4271  1621.75
 18.4492  1619.16
 18.4713  1617.26
 18.4935  1614.83
 18.5156  1613.76
 18.5377  1612.31
 18.5598  1610.11
 18.5819  1607.6
 18.604  1607.09
 18.6261  1606.82
 18.6482  1604.09
 18.6703  1600.98
 18.6924  1599.52
 18.7145  1597.76
 18.7366  1596.51
 18.7588  1594.7
 18.7809  1593.4
 18.803  1594.45
 18.8251  1594.98
 18.8472  1594.17
 18.8693  1593.86
 18.8914  1592.83
 18.9135  1592.59
 18.9356  1591.59
 18.9577  1591.21
 18.9798  1589.22
 19.0019  1588.38
 19.024  1586.7
 19.0462  1583.34
 19.0683  1579.99
 19.0904  1576.07
 19.1125  1572.11
 19.1346  1569.34
 19.1567  1566.24
 19.1788  1563.46
 19.2009  1561.28
 19.223  1558.55
 19.2451  1555.78
 19.2672  1554.24
 19.2893  1552.28
 19.3115  1550.93
 19.3336  1549.27
 19.3557  1547.14
 19.3778  1545.7
 19.3999  1544.3
 19.422  1542.56
 19.4441  1540.37
 19.4662  1539.56
 19.4883  1539.65
 19.5104  1538.4
 19.5325  1538.68
 19.5546  1537.72
 19.5768  1535.39
 19.5989  1534.37
 19.621  1533.54
 19.6431  1531.55
 19.6652  1530.3
 19.6873  1528.8
 19.7094  1527.76
 19.7315  1525.84
 19.7536  1523.67
 19.7757  1522.53
 19.7978  1521.64
 19.8199  1521.13
 19.842  1520.43
 19.8642  1520.53
 19.8863  1519.34
 19.9084  1517.41
 19.9305  1515.6
 19.9526  1514.29
 19.9747  1513.1
 19.9968  1512.48
 20.0189  1511.13
 20.041  1509.95
 20.0631  1508
 20.0852  1505.43
 20.1073  1503.27
 20.1295  1501.7
 20.1516  1500.12
 20.1737  1498.27
 20.1958  1497.7
 20.2179  1498.06
 20.24  1496.82
 20.2621  1496.25
 20.2842  1496.81
 20.3063  1496.62
 20.3284  1497.59
 20.3505  1499.51
 20.3726  1502.22
 20.3948  1502.55
 20.4169  1504.6
 20.439  1508.48
 20.4611  1512.26
 20.4832  1516.08
 20.5053  1520.79
 20.5274  1525.21
 20.5495  1529.15
 20.5716  1533.21
 20.5937  1536.18
 20.6158  1537.28
 20.6379  1539.59
 20.66  1542.29
 20.6822  1541.68
 20.7043  1538.8
 20.7264  1534.49
 20.7485  1531
 20.7706  1527.46
 20.7927  1522.48
 20.8148  1517.42
 20.8369  1513.09
 20.859  1510.94
 20.8811  1508.47
 20.9032  1505.48
 20.9253  1501.91
 20.9475  1497.66
 20.9696  1491.35
 20.9917  1485.05
 21.0138  1477.25
 21.0359  1470.21
 21.058  1464.75
 21.0801  1460.26
 21.1022  1455.75
 21.1243  1451.8
 21.1464  1449.78
 21.1685  1447.3
 21.1906  1443.95
 21.2128  1442.61
 21.2349  1441.42
 21.257  1439.11
 21.2791  1437.07
 21.3012  1436.06
 21.3233  1435.09
 21.3454  1433.66
 21.3675  1431.75
 21.3896  1430.34
 21.4117  1429.47
 21.4338  1428.28
 21.4559  1427.67
 21.478  1426.05
 21.5002  1424.1
 21.5223  1423.11
 21.5444  1422.08
 21.5665  1420.16
 21.5886  1419.41
 21.6107  1418.29
 21.6328  1416.45
 21.6549  1414.47
 21.677  1412.37
 21.6991  1411.62
 21.7212  1410.31
 21.7433  1407.14
 21.7655  1405.17
 21.7876  1404.03
 21.8097  1399.77
 21.8318  1396.85
 21.8539  1394.64
 21.876  1391.43
 21.8981  1387.28
 21.9202  1385.02
 21.9423  1383.01
 21.9644  1379.73
 21.9865  1377.45
 22.0086  1375.41
 22.0308  1372.31
 22.0529  1369.81
 22.075  1369.41
 22.0971  1370.66
 22.1192  1369.68
 22.1413  1366.88
 22.1634  1364.89
 22.1855  1363.88
 22.2076  1364.39
 22.2297  1364.1
 22.2518  1363.31
 22.2739  1362.24
 22.2961  1361.21
 22.3182  1361.56
 22.3403  1360.24
 22.3624  1360.5
 22.3845  1359.91
 22.4066  1357.35
 22.4287  1354.44
 22.4508  1354.66
 22.4729  1352.16
 22.495  1349.36
 22.5171  1348.74
 22.5392  1347.37
 22.5614  1343.81
 22.5835  1342.21
 22.6056  1340.18
 22.6277  1337.17
 22.6498  1335.82
 22.6719  1334.51
 22.694  1332.61
 22.7161  1330.95
 22.7382  1328.96
 22.7603  1327.31
 22.7824  1325.26
 22.8045  1324.18
 22.8266  1323.14
 22.8488  1319.88
 22.8709  1319.38
 22.893  1317.73
 22.9151  1317.33
 22.9372  1318.13
 22.9593  1319.23
 22.9814  1316.93
 23.0035  1316.91
 23.0256  1316.48
 23.0477  1314.71
 23.0698  1314.84
 23.0919  1314.27
 23.1141  1312.41
 23.1362  1288.89
 23.1583  1214.43
 23.1804  1144.23
 23.2025  1093.95
 23.2246  1064.22
 23.2467  1036.31
 23.2688  1005.82
 23.2909  976.751
 23.313  968.873
 23.3351  953.862
 23.3572  937.394
 23.3794  920.781
 23.4015  907.453
 23.4236  892.615
 23.4457  879.701
 23.4678  867.362
 23.4899  852.911
 23.512  840.879
 23.5341  839.84
 23.5562  834.214
 23.5783  828.618
 23.6004  821.169
 23.6225  815.472
 23.6446  807.321
 23.6668  800.772
 23.6889  793.275
 23.711  788.16
 23.7331  782.844
 23.7552  779.009
 23.7773  775.628
 23.7994  774.118
 23.8215  772.189
 23.8436  770.361
 23.8657  769.884
 23.8878  767.513
 23.9099  767.534
 23.9321  766.264
 23.9542  765.381
 23.9763  764.218
 23.9984  764.036
 24.0205  763.26
 24.0426  763.942
 24.0647  761.369
 24.0868  760.763
 24.1089  757.243
 24.131  752.838
 24.1531  749.224
 24.1752  742.836
 24.1974  736.06
 24.2195  730.952
 24.2416  723.517
 24.2637  715.929
 24.2858  708.227
 24.3079  698.399
 24.33  687.474
 24.3521  676.574
 24.3742  664.589
 24.3963  651.21
 24.4184  636.83
 24.4405  625.794
 24.4626  610.206
 24.4848  591.729
 24.5069  575.107
 24.529  550.577
 24.5511  533.376
 24.5732  500.2
 24.5953  470.233
 24.6174  434.095
 24.6395  410.549
 24.6616  382.58
 24.6837  344.548
 24.7058  294.676
 24.7279  230.369
 24.7501  127.397
 24.7722  41.6878
 24.7943  23.5119
 24.8164  23.1109
 24.8385  23.0229
 24.8606  22.626
 24.8827  22.4164
 24.9048  22.1248
 24.9269  21.9035
 24.949  21.7341
 24.9711  21.3098
 24.9932  20.9271
 25.0154  20.4882
 25.0375  20.0642
 25.0596  19.6173
 25.0817  19.2874
 25.1038  19.0907
 25.1259  18.8632
 25.148  18.513
 25.1701  18.133
 25.1922  17.8586
 25.2143  17.6796
 25.2364  17.4108
 25.2585  17.2427
 25.2806  17.2074
 25.3028  17.0925
 25.3249  17.0512
 25.347  17.0582
 25.3691  16.9778
 25.3912  16.9035
 25.4133  16.9067
 25.4354  16.9038
 25.4575  16.9179
 25.4796  16.9706
 25.5017  16.875
 25.5238  16.9505
 25.5459  16.8455
 25.5681  16.9672
 25.5902  17.0335
 25.6123  17.1248
 25.6344  17.1571
 25.6565  17.5212
 25.6786  17.7194
 25.7007  17.9124
 25.7228  18.1383
 25.7449  18.3246
 25.767  18.419
 25.7891  18.6341
 25.8112  18.7921
 25.8334  18.9467
 25.8555  18.9272
 25.8776  19.0913
 25.8997  19.2216
 25.9218  19.0623
 25.9439  19.2267
 25.966  19.1596
 25.9881  19.3661
 26.0102  19.335
 26.0323  19.4
 26.0544  19.513
 26.0765  19.4391
 26.0986  19.633
 26.1208  19.5735
 26.1429  19.7556
 26.165  19.7933
 26.1871  20.0477
 26.2092  20.3801
 26.2313  20.8973
 26.2534  21.2611
 26.2755  21.5289
 26.2976  21.7217
 26.3197  21.9245
 26.3418  22.1125
 26.3639  22.2932
 26.3861  22.4355
 26.4082  22.7053
 26.4303  22.9222
 26.4524  22.9469
 26.4745  22.8869
 26.4966  22.799
 26.5187  22.8256
 26.5408  22.9198
 26.5629  22.8401
 26.585  22.8355
 26.6071  22.8884
 26.6292  22.8594
 26.6514  22.8762
 26.6735  23.0547
 26.6956  23.1419
 26.7177  23.3068
 26.7398  23.5004
 26.7619  23.5984
 26.784  23.5635
 26.8061  23.3
 26.8282  23.3286
 26.8503  23.1392
 26.8724  23.095
 26.8945  22.9358
 26.9167  22.9557
 26.9388  23.0242
 26.9609  23.0893
 26.983  23.3377
 27.0051  23.5388
 27.0272  23.5306
 27.0493  23.9096
 27.0714  23.8346
 27.0935  23.9403
 27.1156  23.9657
 27.1377  24.2222
 27.1598  24.302
 27.182  24.3161
 27.2041  24.4977
 27.2262  24.4496
 27.2483  24.487
 27.2704  24.2592
 27.2925  24.2031
 27.3146  24.1275
 27.3367  23.9383
 27.3588  23.6454
 27.3809  22.8603
 27.403  22.5913
 27.4251  22.5375
 27.4472  22.5451
 27.4694  22.3876
 27.4915  22.1884
 27.5136  21.8971
 27.5357  22.0395
 27.5578  22.4426
 27.5799  22.9219
 27.602  23.3584
 27.6241  24.0012
 27.6462  24.4063
 27.6683  24.7673
 27.6904  24.624
 27.7125  24.4121
 27.7347  24.1552
 27.7568  23.9275
 27.7789  23.7534
 27.801  23.6432
 27.8231  23.6633
 27.8452  23.6172
 27.8673  23.4175
 27.8894  23.0297
 27.9115  23.234
 27.9336  23.6483
 27.9557  24.1032
 27.9778  24.42
 27.9999  24.9385
 28.0221  25.438
 28.0442  25.7672
 28.0663  26.0206
 28.0884  26.6124
 28.1105  27.1357
 28.1326  27.6671
 28.1547  28.307
 28.1768  28.6442
 28.1989  29.4493
 28.221  30.0984
 28.2431  30.3552
 28.2652  30.9424
 28.2874  31.3018
 28.3095  31.9809
 28.3316  32.6011
 28.3537  32.8965
 28.3758  33.025
 28.3979  32.72
 28.42  32.5683
 28.4421  33.0489
 28.4642  32.7393
 28.4863  32.5777
 28.5084  32.5
 28.5305  31.9198
 28.5527  32.0615
 28.5748  31.678
 28.5969  31.1887
 28.619  31.1792
 28.6411  30.8873
 28.6632  30.5892
 28.6853  30.4067
 28.7074  30.2245
 28.7295  30.0304
 28.7516  30.0365
 28.7737  30.3376
 28.7958  30.5144
 28.818  30.3808
 28.8401  30.3669
 28.8622  30.4206
 28.8843  30.5928
 28.9064  31.6731
 28.9285  32.2936
 28.9506  32.8962
 28.9727  33.9488
 28.9948  34.7666
 29.0169  35.2763
 29.039  36.0627
 29.0611  36.841
 29.0832  37.7053
 29.1054  38.9421
 29.1275  39.6529
 29.1496  40.8801
 29.1717  41.8029
 29.1938  42.1584
 29.2159  42.78
 29.238  43.1893
 29.2601  43.5084
 29.2822  43.9082
 29.3043  44.0751
 29.3264  44.5169
 29.3485  45.2574
 29.3707  45.3554
 29.3928  45.1603
 29.4149  45.6469
 29.437  45.5039
 29.4591  45.2931
 29.4812  45.5276
 29.5033  44.6753
 29.5254  43.9659
 29.5475  44.5204
 29.5696  44.8474
 29.5917  44.9796
 29.6138  46.2474
 29.636  47.5762
 29.6581  48.8795
 29.6802  50.651
 29.7023  52.4782
 29.7244  53.098
 29.7465  53.5483
 29.7686  54.655
 29.7907  54.7724
 29.8128  55.3336
 29.8349  56.8788
 29.857  57.334
 29.8791  57.4361
 29.9012  59.0206
 29.9234  59.4842
 29.9455  59.6164
 29.9676  60.6412
 29.9897  60.9864
 30.0118  61.196
 30.0339  62.2517
 30.056  62.8319
 30.0781  62.9518
 30.1002  64.1995
 30.1223  65.8206
 30.1444  65.8531
 30.1665  66.238
 30.1887  67.6078
 30.2108  66.7624
 30.2329  66.4606
 30.255  67.6364
 30.2771  67.6565
 30.2992  67.6626
 30.3213  69.1201
 30.3434  69.8755
 30.3655  69.9367
 30.3876  70.6384
 30.4097  72.3519
 30.4318  72.4514
 30.454  71.8781
 30.4761  73.7381
 30.4982  75.3833
 30.5203  75.848
 30.5424  77.2286
 30.5645  78.0771
 30.5866  78.7741
 30.6087  80.4593
 30.6308  80.3084
 30.6529  80.9732
 30.675  82.8456
 30.6971  81.895
 30.7192  81.1046
 30.7414  82.5267
 30.7635  82.8388
 30.7856  81.7281
 30.8077  83.2453
 30.8298  84.1228
 30.8519  83.0493
 30.874  84.8702
 30.8961  85.673
 30.9182  85.8244
 30.9403  87.409
 30.9624  89.1641
 30.9845  91.912
 31.0067  92.8899
 31.0288  93.3012
 31.0509  97.4768
 31.073  99.2083
 31.0951  97.5424
 31.1172  100.344
 31.1393  103.719
 31.1614  103.772
 31.1835  104.419
 31.2056  110.614
 31.2277  115.708
 31.2498  114.365
 31.272  117.348
 31.2941  121.069
 31.3162  117.323
 31.3383  116.941
 31.3604  118.985
 31.3825  116.858
 31.4046  116.154
 31.4267  118.894
 31.4488  119.172
 31.4709  117.94
 31.493  120.529
 31.5151  124.56
 31.5373  125.486
 31.5594  128.059
 31.5815  130.64
 31.6036  132.1
 31.6257  132.488
 31.6478  133.324
 31.6699  134.294
 31.692  134.186
 31.7141  135.813
 31.7362  136.63
 31.7583  138.084
 31.7804  140.842
 31.8025  138.621
 31.8247  135.954
 31.8468  139.234
 31.8689  140.59
 31.891  139.564
 31.9131  140.468
 31.9352  141.932
 31.9573  143.079
 31.9794  141.223
 32.0015  143.489
 32.0236  146.317
 32.0457  141.052
 32.0678  136.432
 32.09  138.853
 32.1121  140.468
 32.1342  135.351
 32.1563  130.703
 32.1784  133.084
 32.2005  131.386
 32.2226  124.922
 32.2447  121.486
 32.2668  120.713
 32.2889  116.815
 32.311  112.138
 32.3331  104.294
 32.3553  96.1555
 32.3774  97.6763
 32.3995  100.507
 32.4216  101.699
 32.4437  103.763
 32.4658  107.644
 32.4879  114.614
 32.51  119.88
 32.5321  127.003
 32.5542  134.305
 32.5763  152.195
 32.5984  166.801
 32.6205  174.193
 32.6427  180.638
 32.6648  196.574
 32.6869  216.251
 32.709  234.318
 32.7311  266.559