File: BA_11.chi
D:\DATA\UserData\CuiTian20190403\\CWH\BA\BA_11.tif: 2-theta Scan
2-Theta Angle (Degrees)
Intensity
       1481
 0.011054  68.9042
 0.0331621  63.0805
 0.0552701  60.1577
 0.0773782  58.1666
 0.0994862  53.092
 0.121594  50.4141
 0.143702  49.2816
 0.16581  47.8676
 0.187918  46.316
 0.210026  46.0781
 0.232135  45.4706
 0.254243  45.8648
 0.276351  45.027
 0.298459  45.1672
 0.320567  45.3642
 0.342675  43.9413
 0.364783  42.8105
 0.386891  42.1635
 0.408999  42.3195
 0.431107  40.954
 0.453215  40.6639
 0.475323  40.7844
 0.497431  40.328
 0.519539  40.1625
 0.541647  40.102
 0.563755  40.1752
 0.585863  40.2807
 0.607971  40.5634
 0.630079  40.9143
 0.652188  40.7702
 0.674296  40.522
 0.696404  41.3305
 0.718512  41.8325
 0.74062  41.9771
 0.762728  41.0359
 0.784836  40.1015
 0.806944  39.131
 0.829052  38.8506
 0.85116  39.0759
 0.873268  40.0997
 0.895376  40.8878
 0.917484  41.0402
 0.939592  41.0938
 0.9617  40.7873
 0.983808  40.6757
 1.00592  41.0339
 1.02802  40.9479
 1.05013  40.5352
 1.07224  40.7185
 1.09435  41.2316
 1.11646  41.3503
 1.13856  41.2419
 1.16067  41.5179
 1.18278  41.6165
 1.20489  41.8552
 1.227  42.141
 1.2491  42.1058
 1.27121  41.8043
 1.29332  42.0808
 1.31543  42.7377
 1.33754  43.047
 1.35965  42.7533
 1.38175  42.8382
 1.40386  43.1474
 1.42597  42.8721
 1.44808  43.13
 1.47019  43.3169
 1.49229  43.9478
 1.5144  43.956
 1.53651  44.19
 1.55862  44.6587
 1.58073  44.8278
 1.60283  44.6049
 1.62494  44.5145
 1.64705  44.9796
 1.66916  45.325
 1.69127  45.6032
 1.71337  46.2021
 1.73548  46.4467
 1.75759  46.7465
 1.7797  47.6724
 1.80181  49.1812
 1.82391  50.4737
 1.84602  52.0105
 1.86813  55.7824
 1.89024  65.1711
 1.91235  84.5642
 1.93445  116.319
 1.95656  154.994
 1.97867  194.676
 2.00078  232.756
 2.02289  267.679
 2.04499  302.305
 2.0671  338.06
 2.08921  379.845
 2.11132  426.748
 2.13343  477.467
 2.15553  532.537
 2.17764  587.168
 2.19975  633.048
 2.22186  670.356
 2.24397  702.671
 2.26608  731.131
 2.28818  761.358
 2.31029  788.132
 2.3324  813.87
 2.35451  840.471
 2.37662  867.596
 2.39872  895.108
 2.42083  920.358
 2.44294  944.62
 2.46505  966.852
 2.48716  990.534
 2.50926  1012.35
 2.53137  1032.49
 2.55348  1049.84
 2.57559  1069.73
 2.5977  1091.73
 2.6198  1112.82
 2.64191  1129.76
 2.66402  1146.3
 2.68613  1167.34
 2.70824  1187.27
 2.73034  1202.63
 2.75245  1216.98
 2.77456  1233.75
 2.79667  1252.3
 2.81878  1268.16
 2.84088  1284.5
 2.86299  1298.82
 2.8851  1313.59
 2.90721  1331.7
 2.92932  1348.01
 2.95142  1360.3
 2.97353  1372.96
 2.99564  1387.08
 3.01775  1398.27
 3.03986  1409.44
 3.06196  1421.53
 3.08407  1432.95
 3.10618  1444.31
 3.12829  1454.32
 3.1504  1465.73
 3.17251  1475.37
 3.19461  1486.22
 3.21672  1496.36
 3.23883  1504.44
 3.26094  1515.8
 3.28305  1525.95
 3.30515  1535.34
 3.32726  1543.78
 3.34937  1550.97
 3.37148  1559.72
 3.39359  1568.17
 3.41569  1575.9
 3.4378  1587.3
 3.45991  1612.86
 3.48202  1652.25
 3.50413  1637.93
 3.52623  1617.09
 3.54834  1624.21
 3.57045  1630.1
 3.59256  1637.34
 3.61467  1645.47
 3.63677  1653.76
 3.65888  1661.58
 3.68099  1666.58
 3.7031  1671.55
 3.72521  1677.37
 3.74731  1681.5
 3.76942  1685.82
 3.79153  1691.22
 3.81364  1696.45
 3.83575  1701.93
 3.85785  1708.19
 3.87996  1714.37
 3.90207  1717.44
 3.92418  1719.54
 3.94629  1723.75
 3.9684  1727.96
 3.9905  1732.54
 4.01261  1736.46
 4.03472  1740.46
 4.05683  1744.03
 4.07894  1748.73
 4.10104  1751.24
 4.12315  1755.89
 4.14526  1760.64
 4.16737  1766.09
 4.18948  1770.09
 4.21158  1771.81
 4.23369  1772.79
 4.2558  1772.55
 4.27791  1773.62
 4.30002  1777.36
 4.32212  1783.19
 4.34423  1785.01
 4.36634  1785.64
 4.38845  1789.03
 4.41056  1793.62
 4.43266  1794.52
 4.45477  1793.33
 4.47688  1795.96
 4.49899  1797.04
 4.5211  1797.07
 4.5432  1798.54
 4.56531  1802.39
 4.58742  1803.21
 4.60953  1802.99
 4.63164  1804.41
 4.65374  1805.01
 4.67585  1804.52
 4.69796  1806.18
 4.72007  1808.75
 4.74218  1810.85
 4.76429  1812.17
 4.78639  1811.47
 4.8085  1811.6
 4.83061  1813.33
 4.85272  1813.02
 4.87483  1813.78
 4.89693  1815.62
 4.91904  1813.68
 4.94115  1815.17
 4.96326  1820.13
 4.98537  1820.54
 5.00747  1817.17
 5.02958  1815.58
 5.05169  1817.88
 5.0738  1817.83
 5.09591  1816.1
 5.11801  1816.21
 5.14012  1817.98
 5.16223  1817.25
 5.18434  1817.91
 5.20645  1817.44
 5.22855  1816.71
 5.25066  1815.99
 5.27277  1814.28
 5.29488  1814
 5.31699  1814.18
 5.33909  1812.51
 5.3612  1812.06
 5.38331  1812.74
 5.40542  1814.9
 5.42753  1813.66
 5.44963  1811.98
 5.47174  1812.68
 5.49385  1812.22
 5.51596  1811.03
 5.53807  1809.63
 5.56017  1809.83
 5.58228  1811.02
 5.60439  1811.68
 5.6265  1810.73
 5.64861  1809
 5.67072  1806.81
 5.69282  1807.95
 5.71493  1807.26
 5.73704  1807.91
 5.75915  1807.22
 5.78126  1806.4
 5.80336  1807.06
 5.82547  1806.92
 5.84758  1807.4
 5.86969  1805.05
 5.8918  1803.63
 5.9139  1803.61
 5.93601  1800.39
 5.95812  1798.7
 5.98023  1800.17
 6.00234  1800.59
 6.02444  1800.31
 6.04655  1800.32
 6.06866  1801.5
 6.09077  1800.11
 6.11288  1797.42
 6.13498  1797.32
 6.15709  1795.36
 6.1792  1791.61
 6.20131  1792.45
 6.22342  1792.08
 6.24552  1791.47
 6.26763  1792.81
 6.28974  1794.67
 6.31185  1793.15
 6.33396  1793.39
 6.35606  1792.62
 6.37817  1794.24
 6.40028  1797.04
 6.42239  1796.46
 6.4445  1792.74
 6.4666  1789.83
 6.48871  1787.71
 6.51082  1788.3
 6.53293  1786.84
 6.55504  1784.34
 6.57715  1785.56
 6.59925  1786.13
 6.62136  1784.24
 6.64347  1782.88
 6.66558  1780.37
 6.68769  1780.75
 6.70979  1780.93
 6.7319  1779.27
 6.75401  1777.1
 6.77612  1776.92
 6.79823  1776.88
 6.82033  1774.84
 6.84244  1775.57
 6.86455  1774.05
 6.88666  1774.07
 6.90877  1775.71
 6.93087  1775.85
 6.95298  1775.16
 6.97509  1775.9
 6.9972  1774.06
 7.01931  1773.27
 7.04141  1771.86
 7.06352  1770.85
 7.08563  1771.03
 7.10774  1769.35
 7.12985  1767.83
 7.15195  1766.55
 7.17406  1766.44
 7.19617  1767.41
 7.21828  1767.15
 7.24039  1766.29
 7.26249  1765.44
 7.2846  1764.02
 7.30671  1763.73
 7.32882  1761.97
 7.35093  1759.62
 7.37303  1758.3
 7.39514  1757.44
 7.41725  1756.99
 7.43936  1757.88
 7.46147  1757.61
 7.48358  1758.46
 7.50568  1758.53
 7.52779  1757.63
 7.5499  1756.34
 7.57201  1755.91
 7.59412  1755.97
 7.61622  1755.17
 7.63833  1754.05
 7.66044  1752.88
 7.68255  1753.04
 7.70466  1752.98
 7.72676  1752.02
 7.74887  1751.31
 7.77098  1751.03
 7.79309  1749.65
 7.8152  1749.08
 7.8373  1748.21
 7.85941  1749.36
 7.88152  1751.35
 7.90363  1749.25
 7.92574  1746.87
 7.94784  1747.1
 7.96995  1747.68
 7.99206  1747.47
 8.01417  1746.62
 8.03628  1744.43
 8.05838  1744.28
 8.08049  1745.7
 8.1026  1746.88
 8.12471  1746.15
 8.14682  1746.17
 8.16893  1746.58
 8.19103  1745.24
 8.21314  1744.14
 8.23525  1743.95
 8.25736  1745.73
 8.27946  1745.17
 8.30157  1744.86
 8.32368  1745.42
 8.34579  1745.5
 8.3679  1746.05
 8.39001  1746.76
 8.41211  1746.17
 8.43422  1746.15
 8.45633  1747.37
 8.47844  1747.9
 8.50055  1748.87
 8.52265  1753.29
 8.54476  1757.6
 8.56687  1761.44
 8.58898  1765.64
 8.61109  1770.44
 8.63319  1774.61
 8.6553  1773.31
 8.67741  1766.94
 8.69952  1760.81
 8.72163  1757.54
 8.74373  1756.21
 8.76584  1754.74
 8.78795  1752.07
 8.81006  1748.62
 8.83217  1747.33
 8.85427  1746.53
 8.87638  1746.42
 8.89849  1748.3
 8.9206  1750.27
 8.94271  1752.74
 8.96482  1756.74
 8.98692  1763.17
 9.00903  1767.66
 9.03114  1770.77
 9.05325  1772.14
 9.07535  1774.38
 9.09746  1777.17
 9.11957  1774.84
 9.14168  1772.76
 9.16379  1774.69
 9.1859  1783.98
 9.208  1792.67
 9.23011  1791.95
 9.25222  1782.8
 9.27433  1768.18
 9.29644  1757.23
 9.31854  1750.92
 9.34065  1747.68
 9.36276  1745.59
 9.38487  1745.21
 9.40698  1748.17
 9.42908  1750.66
 9.45119  1753.72
 9.4733  1768.04
 9.49541  1831.89
 9.51752  1849.33
 9.53962  1845.04
 9.56173  1796.08
 9.58384  1759.23
 9.60595  1755.91
 9.62806  1753.95
 9.65016  1754.55
 9.67227  1756.06
 9.69438  1756.4
 9.71649  1757.24
 9.7386  1757.69
 9.7607  1758.03
 9.78281  1758.67
 9.80492  1760.97
 9.82703  1762.57
 9.84914  1765.09
 9.87124  1770.39
 9.89335  1776.5
 9.91546  1780.97
 9.93757  1786.83
 9.95968  1791.33
 9.98178  1795.16
 10.0039  1797.66
 10.026  1796.69
 10.0481  1796.08
 10.0702  1795.62
 10.0923  1795.12
 10.1144  1793.58
 10.1365  1790.52
 10.1586  1787.36
 10.1808  1785.31
 10.2029  1784.89
 10.225  1783.03
 10.2471  1779.84
 10.2692  1777.75
 10.2913  1777.06
 10.3134  1774.9
 10.3355  1776.37
 10.3576  1778.1
 10.3797  1777.26
 10.4018  1777.11
 10.4239  1776.7
 10.4461  1776.14
 10.4682  1778.06
 10.4903  1781.67
 10.5124  1783.98
 10.5345  1787.31
 10.5566  1795.37
 10.5787  1809.97
 10.6008  1820.34
 10.6229  1808.87
 10.645  1801.5
 10.6671  1802.62
 10.6892  1806.45
 10.7113  1809.89
 10.7335  1814.66
 10.7556  1819.48
 10.7777  1826.19
 10.7998  1833.76
 10.8219  1844.99
 10.844  1859.36
 10.8661  1876.63
 10.8882  1898.24
 10.9103  1926.68
 10.9324  1968.28
 10.9545  2035.39
 10.9766  2138.25
 10.9988  2252.08
 11.0209  2351.94
 11.043  2413.19
 11.0651  2425.36
 11.0872  2389.11
 11.1093  2331.32
 11.1314  2270.48
 11.1535  2213.71
 11.1756  2167.55
 11.1977  2137.02
 11.2198  2107.84
 11.2419  2061.45
 11.2641  2002.26
 11.2862  1947.09
 11.3083  1907.05
 11.3304  1879.61
 11.3525  1859.79
 11.3746  1847.6
 11.3967  1841.53
 11.4188  1839.79
 11.4409  1837.59
 11.463  1836.14
 11.4851  1836.25
 11.5072  1837.65
 11.5293  1840.51
 11.5515  1844.46
 11.5736  1848.78
 11.5957  1854.38
 11.6178  1859.89
 11.6399  1866.05
 11.662  1873.22
 11.6841  1883.02
 11.7062  1892.09
 11.7283  1900.14
 11.7504  1909.51
 11.7725  1921.42
 11.7946  1927.9
 11.8168  1928.27
 11.8389  1923.12
 11.861  1913.06
 11.8831  1901.3
 11.9052  1890.21
 11.9273  1878.17
 11.9494  1866.85
 11.9715  1859.85
 11.9936  1854.89
 12.0157  1850.21
 12.0378  1847.44
 12.0599  1843.63
 12.0821  1841.22
 12.1042  1840.49
 12.1263  1841.03
 12.1484  1841.22
 12.1705  1841.14
 12.1926  1842.26
 12.2147  1843
 12.2368  1845.14
 12.2589  1851.14
 12.281  1857.09
 12.3031  1862.53
 12.3252  1868.39
 12.3473  1874.44
 12.3695  1882.02
 12.3916  1891.48
 12.4137  1899.2
 12.4358  1905.74
 12.4579  1910.5
 12.48  1910.85
 12.5021  1909.95
 12.5242  1909.24
 12.5463  1909.73
 12.5684  1916.96
 12.5905  1934.68
 12.6126  1959.36
 12.6348  1985.52
 12.6569  2010.08
 12.679  2039.29
 12.7011  2091.9
 12.7232  2196.99
 12.7453  2359.62
 12.7674  2540.48
 12.7895  2695.89
 12.8116  2760.01
 12.8337  2734.3
 12.8558  2631.46
 12.8779  2484.95
 12.9  2320.86
 12.9222  2168.36
 12.9443  2052.71
 12.9664  1973.23
 12.9885  1920.84
 13.0106  1891.87
 13.0327  1877.45
 13.0548  1868.1
 13.0769  1860.96
 13.099  1856.79
 13.1211  1854.35
 13.1432  1852.61
 13.1653  1849.32
 13.1875  1847.62
 13.2096  1846.96
 13.2317  1845.39
 13.2538  1844.14
 13.2759  1842.77
 13.298  1841.28
 13.3201  1841.47
 13.3422  1840.88
 13.3643  1840.43
 13.3864  1841.35
 13.4085  1841.8
 13.4306  1840.54
 13.4527  1839.14
 13.4749  1837.79
 13.497  1837.87
 13.5191  1838.4
 13.5412  1838.41
 13.5633  1837.74
 13.5854  1837.23
 13.6075  1838.71
 13.6296  1839.26
 13.6517  1838.4
 13.6738  1837.69
 13.6959  1839.48
 13.718  1839.78
 13.7402  1840.65
 13.7623  1843.28
 13.7844  1844.95
 13.8065  1845.54
 13.8286  1844.75
 13.8507  1844.96
 13.8728  1846.69
 13.8949  1845.63
 13.917  1845
 13.9391  1845.06
 13.9612  1844.89
 13.9833  1845.08
 14.0054  1844.7
 14.0276  1845.56
 14.0497  1846.87
 14.0718  1847.26
 14.0939  1847.53
 14.116  1848.8
 14.1381  1850.16
 14.1602  1850.42
 14.1823  1852.11
 14.2044  1855.98
 14.2265  1860.44
 14.2486  1864
 14.2707  1868.21
 14.2929  1869.49
 14.315  1870.86
 14.3371  1872.51
 14.3592  1870.81
 14.3813  1868.11
 14.4034  1866.53
 14.4255  1864.54
 14.4476  1861.11
 14.4697  1857.86
 14.4918  1856.57
 14.5139  1856.78
 14.536  1856.75
 14.5582  1855.46
 14.5803  1854.83
 14.6024  1856.08
 14.6245  1857.38
 14.6466  1857.75
 14.6687  1858.02
 14.6908  1858.63
 14.7129  1858.64
 14.735  1858.67
 14.7571  1858.59
 14.7792  1859.38
 14.8013  1859.73
 14.8234  1858.84
 14.8456  1859.86
 14.8677  1861.47
 14.8898  1861.4
 14.9119  1861.75
 14.934  1861.89
 14.9561  1862.72
 14.9782  1862.89
 15.0003  1863.54
 15.0224  1865.13
 15.0445  1866.38
 15.0666  1868.03
 15.0887  1869.1
 15.1109  1868.84
 15.133  1868.15
 15.1551  1868.08
 15.1772  1869.05
 15.1993  1869.39
 15.2214  1870.21
 15.2435  1869.85
 15.2656  1870.6
 15.2877  1871.54
 15.3098  1872.32
 15.3319  1873.28
 15.354  1874.55
 15.3761  1875.47
 15.3983  1874.98
 15.4204  1875.86
 15.4425  1878.05
 15.4646  1879.17
 15.4867  1881.3
 15.5088  1884
 15.5309  1887.05
 15.553  1890.36
 15.5751  1893.46
 15.5972  1895.98
 15.6193  1898.24
 15.6414  1898.8
 15.6636  1899.33
 15.6857  1900.74
 15.7078  1900.42
 15.7299  1900.62
 15.752  1900.91
 15.7741  1900.13
 15.7962  1899.76
 15.8183  1901.26
 15.8404  1902.52
 15.8625  1903.67
 15.8846  1903.5
 15.9067  1903.18
 15.9289  1903.14
 15.951  1902.63
 15.9731  1901.19
 15.9952  1900.58
 16.0173  1900.22
 16.0394  1898.01
 16.0615  1896.35
 16.0836  1895.09
 16.1057  1893.82
 16.1278  1893.51
 16.1499  1891.7
 16.172  1888.72
 16.1941  1887.93
 16.2163  1885.93
 16.2384  1885.79
 16.2605  1884.17
 16.2826  1882.46
 16.3047  1882.35
 16.3268  1882.53
 16.3489  1882.79
 16.371  1883.1
 16.3931  1883.46
 16.4152  1882.67
 16.4373  1881.9
 16.4594  1880.55
 16.4816  1880.77
 16.5037  1880.48
 16.5258  1879.91
 16.5479  1878.28
 16.57  1876.56
 16.5921  1877.84
 16.6142  1880.13
 16.6363  1879.76
 16.6584  1878.94
 16.6805  1878.74
 16.7026  1878.33
 16.7247  1878.19
 16.7468  1877.68
 16.769  1874.85
 16.7911  1874.42
 16.8132  1874.83
 16.8353  1874.71
 16.8574  1875.24
 16.8795  1874.14
 16.9016  1873.36
 16.9237  1872.86
 16.9458  1873.11
 16.9679  1874.42
 16.99  1874.81
 17.0121  1875.11
 17.0343  1875.75
 17.0564  1877.32
 17.0785  1881.11
 17.1006  1887.15
 17.1227  1894.34
 17.1448  1903.62
 17.1669  1912.7
 17.189  1920.96
 17.2111  1926.7
 17.2332  1929.12
 17.2553  1929.8
 17.2774  1926.12
 17.2995  1920.25
 17.3217  1915.03
 17.3438  1909.68
 17.3659  1903.13
 17.388  1895.94
 17.4101  1889.27
 17.4322  1884.46
 17.4543  1880.82
 17.4764  1878.34
 17.4985  1876.42
 17.5206  1873.54
 17.5427  1870.45
 17.5648  1868
 17.587  1864.99
 17.6091  1862.94
 17.6312  1862.84
 17.6533  1861.43
 17.6754  1858.75
 17.6975  1857.6
 17.7196  1858.28
 17.7417  1858.91
 17.7638  1859.57
 17.7859  1859.61
 17.808  1860.16
 17.8301  1861.16
 17.8523  1860.71
 17.8744  1864
 17.8965  1869.85
 17.9186  1875.4
 17.9407  1882.05
 17.9628  1892.02
 17.9849  1904.66
 18.007  1915.09
 18.0291  1923.51
 18.0512  1931.75
 18.0733  1938.67
 18.0954  1946.5
 18.1175  1956.53
 18.1397  1961.16
 18.1618  1953.72
 18.1839  1943.02
 18.206  1929.74
 18.2281  1918.01
 18.2502  1909.9
 18.2723  1901.25
 18.2944  1891.81
 18.3165  1880.45
 18.3386  1864.57
 18.3607  1850.8
 18.3828  1843.39
 18.405  1840.54
 18.4271  1840.81
 18.4492  1844.06
 18.4713  1847.61
 18.4934  1847.74
 18.5155  1846.61
 18.5376  1842.24
 18.5597  1834.9
 18.5818  1825.43
 18.6039  1817.15
 18.626  1810.87
 18.6481  1803.06
 18.6702  1796.36
 18.6924  1790.72
 18.7145  1786.82
 18.7366  1783.56
 18.7587  1779.69
 18.7808  1776.47
 18.8029  1772.97
 18.825  1770.57
 18.8471  1768.5
 18.8692  1765.35
 18.8913  1762.61
 18.9134  1760.73
 18.9355  1758.72
 18.9577  1755.86
 18.9798  1751.4
 19.0019  1748.36
 19.024  1746.88
 19.0461  1745.01
 19.0682  1742.23
 19.0903  1738.87
 19.1124  1737.86
 19.1345  1737.26
 19.1566  1736.15
 19.1787  1733.67
 19.2008  1732.91
 19.223  1732.8
 19.2451  1731.89
 19.2672  1729.71
 19.2893  1729.08
 19.3114  1728.03
 19.3335  1725.47
 19.3556  1722.08
 19.3777  1720.97
 19.3998  1719.93
 19.4219  1719.3
 19.444  1717.3
 19.4661  1714.97
 19.4882  1713.47
 19.5104  1711.48
 19.5325  1709.27
 19.5546  1708.53
 19.5767  1708.12
 19.5988  1708.06
 19.6209  1708.5
 19.643  1707.85
 19.6651  1703.74
 19.6872  1698.2
 19.7093  1693.23
 19.7314  1688.7
 19.7535  1685.75
 19.7757  1683.56
 19.7978  1681.71
 19.8199  1679.87
 19.842  1678.42
 19.8641  1677.69
 19.8862  1676.29
 19.9083  1673.13
 19.9304  1671
 19.9525  1670.44
 19.9746  1669.45
 19.9967  1670.37
 20.0188  1670.9
 20.0409  1669.31
 20.0631  1668.57
 20.0852  1667.94
 20.1073  1666.57
 20.1294  1664.7
 20.1515  1663.35
 20.1736  1661.57
 20.1957  1659.38
 20.2178  1657.69
 20.2399  1656.63
 20.262  1655.07
 20.2841  1654.57
 20.3062  1653.33
 20.3284  1652.63
 20.3505  1652.95
 20.3726  1653.1
 20.3947  1652.3
 20.4168  1651.13
 20.4389  1649.53
 20.461  1648.26
 20.4831  1648.19
 20.5052  1646.88
 20.5273  1645.34
 20.5494  1644.39
 20.5715  1642.98
 20.5936  1640.61
 20.6158  1638.4
 20.6379  1635.59
 20.66  1633.66
 20.6821  1631.99
 20.7042  1629.62
 20.7263  1627.54
 20.7484  1626.56
 20.7705  1626.37
 20.7926  1626.2
 20.8147  1625.71
 20.8368  1626.01
 20.8589  1626.75
 20.8811  1626.79
 20.9032  1629.15
 20.9253  1632.14
 20.9474  1634.97
 20.9695  1638.67
 20.9916  1645.58
 21.0137  1651.57
 21.0358  1657.88
 21.0579  1666.77
 21.08  1676.21
 21.1021  1682.57
 21.1242  1689.35
 21.1464  1699.15
 21.1685  1709.04
 21.1906  1717.31
 21.2127  1721.77
 21.2348  1725.1
 21.2569  1725.23
 21.279  1723.47
 21.3011  1722.33
 21.3232  1719.27
 21.3453  1714.09
 21.3674  1704.75
 21.3895  1694.46
 21.4116  1683.58
 21.4338  1674.64
 21.4559  1667.68
 21.478  1660.59
 21.5001  1650.92
 21.5222  1640.69
 21.5443  1632.62
 21.5664  1623.9
 21.5885  1615.89
 21.6106  1607.17
 21.6327  1599.15
 21.6548  1592.12
 21.6769  1584.69
 21.6991  1577.98
 21.7212  1572.58
 21.7433  1568.61
 21.7654  1565.08
 21.7875  1562.11
 21.8096  1559.75
 21.8317  1558.09
 21.8538  1556.61
 21.8759  1553.7
 21.898  1550.51
 21.9201  1548.87
 21.9422  1547.71
 21.9643  1545.95
 21.9865  1544.92
 22.0086  1544.1
 22.0307  1543.34
 22.0528  1542.75
 22.0749  1541.51
 22.097  1540.11
 22.1191  1540.58
 22.1412  1540.47
 22.1633  1540.14
 22.1854  1539.18
 22.2075  1537.89
 22.2296  1537.04
 22.2518  1534.54
 22.2739  1532.39
 22.296  1530.41
 22.3181  1528.92
 22.3402  1525.25
 22.3623  1523.45
 22.3844  1520.36
 22.4065  1518.14
 22.4286  1515.76
 22.4507  1515.4
 22.4728  1512.72
 22.4949  1510.02
 22.5171  1508.68
 22.5392  1507.61
 22.5613  1506.3
 22.5834  1505.4
 22.6055  1503.15
 22.6276  1500.71
 22.6497  1498.96
 22.6718  1497.5
 22.6939  1495.27
 22.716  1493.18
 22.7381  1491.23
 22.7602  1489.4
 22.7823  1487.44
 22.8045  1486.52
 22.8266  1485.96
 22.8487  1483.21
 22.8708  1482.39
 22.8929  1481.03
 22.915  1478.76
 22.9371  1477.22
 22.9592  1476.86
 22.9813  1473.88
 23.0034  1474.16
 23.0255  1472.7
 23.0476  1470.12
 23.0698  1468.72
 23.0919  1467.1
 23.114  1463.64
 23.1361  1437.75
 23.1582  1355.09
 23.1803  1276.96
 23.2024  1222.02
 23.2245  1188.47
 23.2466  1156.86
 23.2687  1122.54
 23.2908  1089.78
 23.3129  1080.91
 23.335  1063.96
 23.3572  1046.51
 23.3793  1028.2
 23.4014  1013.14
 23.4235  995.195
 23.4456  980.302
 23.4677  966.049
 23.4898  951.629
 23.5119  939.777
 23.534  940.331
 23.5561  934.649
 23.5782  929.781
 23.6003  923.46
 23.6225  917.976
 23.6446  910.25
 23.6667  904.504
 23.6888  896.963
 23.7109  892.7
 23.733  886.614
 23.7551  882.71
 23.7772  879.137
 23.7993  877.958
 23.8214  876.749
 23.8435  874.65
 23.8656  874.813
 23.8877  874.396
 23.9099  875.359
 23.932  874.758
 23.9541  874.888
 23.9762  874.191
 23.9983  874.101
 24.0204  872.17
 24.0425  871.772
 24.0646  867.67
 24.0867  865.66
 24.1088  861.54
 24.1309  855.703
 24.153  850.361
 24.1752  841.544
 24.1973  832.472
 24.2194  822.746
 24.2415  810.937
 24.2636  800.241
 24.2857  789.171
 24.3078  776.409
 24.3299  763.341
 24.352  748.967
 24.3741  733.489
 24.3962  716.873
 24.4183  699.805
 24.4405  690.099
 24.4626  672.018
 24.4847  649.59
 24.5068  629.473
 24.5289  599.944
 24.551  578.974
 24.5731  540.176
 24.5952  505.375
 24.6173  463.314
 24.6394  434.048
 24.6615  400.396
 24.6836  356.538
 24.7057  300.579
 24.7279  229.092
 24.75  114.739
 24.7721  19.8412
 24.7942  0.030568
 24.8163  0.0000000E+00
 24.8384  0.0000000E+00
 24.8605  0.0000000E+00
 24.8826  0.0000000E+00
 24.9047  0.0000000E+00
 24.9268  0.0000000E+00
 24.9489  0.0000000E+00
 24.971  0.0000000E+00
 24.9932  0.0000000E+00
 25.0153  0.0000000E+00
 25.0374  0.0000000E+00
 25.0595  0.0000000E+00
 25.0816  0.0000000E+00
 25.1037  0.0000000E+00
 25.1258  0.0000000E+00
 25.1479  0.0000000E+00
 25.17  0.0000000E+00
 25.1921  0.0000000E+00
 25.2142  0.0000000E+00
 25.2363  0.0000000E+00
 25.2584  0.0000000E+00
 25.2806  0.0000000E+00
 25.3027  0.0000000E+00
 25.3248  0.0000000E+00
 25.3469  0.0000000E+00
 25.369  0.0000000E+00
 25.3911  0.0000000E+00
 25.4132  0.0000000E+00
 25.4353  0.0000000E+00
 25.4574  0.0000000E+00
 25.4795  0.0000000E+00
 25.5016  0.0000000E+00
 25.5237  0.0000000E+00
 25.5459  0.0000000E+00
 25.568  0.0000000E+00
 25.5901  0.0000000E+00
 25.6122  0.0000000E+00
 25.6343  0.0000000E+00
 25.6564  0.0000000E+00
 25.6785  0.0000000E+00
 25.7006  0.0000000E+00
 25.7227  0.0000000E+00
 25.7448  0.0000000E+00
 25.7669  0.0000000E+00
 25.789  0.0000000E+00
 25.8112  0.0000000E+00
 25.8333  0.0000000E+00
 25.8554  0.0000000E+00
 25.8775  0.0000000E+00
 25.8996  0.0000000E+00
 25.9217  0.0000000E+00
 25.9438  0.0000000E+00
 25.9659  0.0000000E+00
 25.988  0.0000000E+00
 26.0101  0.0000000E+00
 26.0322  0.0000000E+00
 26.0543  0.0000000E+00
 26.0764  0.0000000E+00
 26.0986  0.0000000E+00
 26.1207  0.0000000E+00
 26.1428  0.0000000E+00
 26.1649  0.0000000E+00
 26.187  0.0000000E+00
 26.2091  0.0000000E+00
 26.2312  0.0000000E+00
 26.2533  0.0000000E+00
 26.2754  0.0000000E+00
 26.2975  0.0000000E+00
 26.3196  0.0000000E+00
 26.3417  0.0000000E+00
 26.3639  0.0000000E+00
 26.386  0.0000000E+00
 26.4081  0.0000000E+00
 26.4302  0.0000000E+00
 26.4523  0.0000000E+00
 26.4744  0.0000000E+00
 26.4965  0.0000000E+00
 26.5186  0.0000000E+00
 26.5407  0.0000000E+00
 26.5628  0.0000000E+00
 26.5849  0.0000000E+00
 26.607  0.0000000E+00
 26.6291  0.0000000E+00
 26.6513  0.0000000E+00
 26.6734  0.0000000E+00
 26.6955  0.0000000E+00
 26.7176  0.0000000E+00
 26.7397  0.0000000E+00
 26.7618  0.0000000E+00
 26.7839  0.0000000E+00
 26.806  0.0000000E+00
 26.8281  0.0000000E+00
 26.8502  0.0000000E+00
 26.8723  0.0000000E+00
 26.8944  0.0000000E+00
 26.9166  0.0000000E+00
 26.9387  0.0000000E+00
 26.9608  0.0000000E+00
 26.9829  0.0000000E+00
 27.005  0.0000000E+00
 27.0271  0.0000000E+00
 27.0492  0.0000000E+00
 27.0713  0.0000000E+00
 27.0934  0.0000000E+00
 27.1155  0.0000000E+00
 27.1376  0.0000000E+00
 27.1597  0.0000000E+00
 27.1818  0.0000000E+00
 27.204  0.0000000E+00
 27.2261  0.0000000E+00
 27.2482  0.0000000E+00
 27.2703  0.0000000E+00
 27.2924  0.0000000E+00
 27.3145  0.0000000E+00
 27.3366  0.0000000E+00
 27.3587  0.0000000E+00
 27.3808  0.0000000E+00
 27.4029  0.0000000E+00
 27.425  0.0000000E+00
 27.4471  0.0000000E+00
 27.4693  0.0000000E+00
 27.4914  0.0000000E+00
 27.5135  0.0000000E+00
 27.5356  0.0000000E+00
 27.5577  0.0000000E+00
 27.5798  0.0000000E+00
 27.6019  0.0000000E+00
 27.624  0.0000000E+00
 27.6461  0.0000000E+00
 27.6682  0.0000000E+00
 27.6903  0.0000000E+00
 27.7124  0.0000000E+00
 27.7345  0.0000000E+00
 27.7567  0.0000000E+00
 27.7788  0.0000000E+00
 27.8009  0.0000000E+00
 27.823  0.0000000E+00
 27.8451  0.0000000E+00
 27.8672  0.0000000E+00
 27.8893  0.0000000E+00
 27.9114  0.0000000E+00
 27.9335  0.0000000E+00
 27.9556  0.0000000E+00
 27.9777  0.0000000E+00
 27.9998  0.0000000E+00
 28.022  0.0000000E+00
 28.0441  0.0000000E+00
 28.0662  0.0000000E+00
 28.0883  0.0000000E+00
 28.1104  0.0000000E+00
 28.1325  0.0000000E+00
 28.1546  0.0000000E+00
 28.1767  0.0000000E+00
 28.1988  0.0000000E+00
 28.2209  0.0000000E+00
 28.243  0.0000000E+00
 28.2651  0.0000000E+00
 28.2873  0.0000000E+00
 28.3094  0.0000000E+00
 28.3315  0.0000000E+00
 28.3536  0.0000000E+00
 28.3757  0.0000000E+00
 28.3978  0.0000000E+00
 28.4199  0.0000000E+00
 28.442  0.0000000E+00
 28.4641  0.0000000E+00
 28.4862  0.0000000E+00
 28.5083  0.0000000E+00
 28.5304  0.0000000E+00
 28.5525  0.0000000E+00
 28.5747  0.0000000E+00
 28.5968  0.0000000E+00
 28.6189  0.0000000E+00
 28.641  0.0000000E+00
 28.6631  0.0000000E+00
 28.6852  0.0000000E+00
 28.7073  0.0000000E+00
 28.7294  0.0000000E+00
 28.7515  0.0000000E+00
 28.7736  0.0000000E+00
 28.7957  0.0000000E+00
 28.8178  0.0000000E+00
 28.84  0.0000000E+00
 28.8621  0.0000000E+00
 28.8842  0.0000000E+00
 28.9063  0.0000000E+00
 28.9284  0.0000000E+00
 28.9505  0.0000000E+00
 28.9726  0.0000000E+00
 28.9947  0.0000000E+00
 29.0168  0.0000000E+00
 29.0389  0.0000000E+00
 29.061  0.0000000E+00
 29.0831  0.0000000E+00
 29.1052  0.0000000E+00
 29.1274  0.0000000E+00
 29.1495  0.0000000E+00
 29.1716  0.0000000E+00
 29.1937  0.0000000E+00
 29.2158  0.0000000E+00
 29.2379  0.0000000E+00
 29.26  0.0000000E+00
 29.2821  0.0000000E+00
 29.3042  0.0000000E+00
 29.3263  0.0000000E+00
 29.3484  0.0000000E+00
 29.3705  0.0000000E+00
 29.3927  0.0000000E+00
 29.4148  0.0000000E+00
 29.4369  0.0000000E+00
 29.459  0.0000000E+00
 29.4811  0.0000000E+00
 29.5032  0.0000000E+00
 29.5253  0.0000000E+00
 29.5474  0.0000000E+00
 29.5695  0.0000000E+00
 29.5916  0.0000000E+00
 29.6137  0.0000000E+00
 29.6358  0.0000000E+00
 29.658  0.0000000E+00
 29.6801  0.0000000E+00
 29.7022  0.0000000E+00
 29.7243  0.0000000E+00
 29.7464  0.0000000E+00
 29.7685  0.0000000E+00
 29.7906  0.0000000E+00
 29.8127  0.0000000E+00
 29.8348  0.0000000E+00
 29.8569  0.0000000E+00
 29.879  0.0000000E+00
 29.9011  0.0000000E+00
 29.9232  0.0000000E+00
 29.9454  0.0000000E+00
 29.9675  0.0000000E+00
 29.9896  0.0000000E+00
 30.0117  0.0000000E+00
 30.0338  0.0000000E+00
 30.0559  0.0000000E+00
 30.078  0.0000000E+00
 30.1001  0.0000000E+00
 30.1222  0.0000000E+00
 30.1443  0.0000000E+00
 30.1664  0.0000000E+00
 30.1885  0.0000000E+00
 30.2107  0.0000000E+00
 30.2328  0.0000000E+00
 30.2549  0.0000000E+00
 30.277  0.0000000E+00
 30.2991  0.0000000E+00
 30.3212  0.0000000E+00
 30.3433  0.0000000E+00
 30.3654  0.0000000E+00
 30.3875  0.0000000E+00
 30.4096  0.0000000E+00
 30.4317  0.0000000E+00
 30.4538  0.0000000E+00
 30.4759  0.0000000E+00
 30.4981  0.0000000E+00
 30.5202  0.0000000E+00
 30.5423  0.0000000E+00
 30.5644  0.0000000E+00
 30.5865  0.0000000E+00
 30.6086  0.0000000E+00
 30.6307  0.0000000E+00
 30.6528  0.0000000E+00
 30.6749  0.0000000E+00
 30.697  0.0000000E+00
 30.7191  0.0000000E+00
 30.7412  0.0000000E+00
 30.7634  0.0000000E+00
 30.7855  0.0000000E+00
 30.8076  0.0000000E+00
 30.8297  0.0000000E+00
 30.8518  0.0000000E+00
 30.8739  0.0000000E+00
 30.896  0.0000000E+00
 30.9181  0.0000000E+00
 30.9402  0.0000000E+00
 30.9623  0.0000000E+00
 30.9844  0.0000000E+00
 31.0065  0.0000000E+00
 31.0286  0.0000000E+00
 31.0508  0.0000000E+00
 31.0729  0.0000000E+00
 31.095  0.0000000E+00
 31.1171  0.0000000E+00
 31.1392  0.0000000E+00
 31.1613  0.0000000E+00
 31.1834  0.0000000E+00
 31.2055  0.0000000E+00
 31.2276  0.0000000E+00
 31.2497  0.0000000E+00
 31.2718  0.0000000E+00
 31.2939  0.0000000E+00
 31.3161  0.0000000E+00
 31.3382  0.0000000E+00
 31.3603  0.0000000E+00
 31.3824  0.0000000E+00
 31.4045  0.0000000E+00
 31.4266  0.0000000E+00
 31.4487  0.0000000E+00
 31.4708  0.0000000E+00
 31.4929  0.0000000E+00
 31.515  0.0000000E+00
 31.5371  0.0000000E+00
 31.5592  0.0000000E+00
 31.5814  0.0000000E+00
 31.6035  0.0000000E+00
 31.6256  0.0000000E+00
 31.6477  0.0000000E+00
 31.6698  0.0000000E+00
 31.6919  0.0000000E+00
 31.714  0.0000000E+00
 31.7361  0.0000000E+00
 31.7582  0.0000000E+00
 31.7803  0.0000000E+00
 31.8024  0.0000000E+00
 31.8245  0.0000000E+00
 31.8466  0.0000000E+00
 31.8688  0.0000000E+00
 31.8909  0.0000000E+00
 31.913  0.0000000E+00
 31.9351  0.0000000E+00
 31.9572  0.0000000E+00
 31.9793  0.0000000E+00
 32.0014  0.0000000E+00
 32.0235  0.0000000E+00
 32.0456  0.0000000E+00
 32.0677  0.0000000E+00
 32.0898  0.0000000E+00
 32.1119  0.0000000E+00
 32.1341  0.0000000E+00
 32.1562  0.0000000E+00
 32.1783  0.0000000E+00
 32.2004  0.0000000E+00
 32.2225  0.0000000E+00
 32.2446  0.0000000E+00
 32.2667  0.0000000E+00
 32.2888  0.0000000E+00
 32.3109  0.0000000E+00
 32.333  0.0000000E+00
 32.3551  0.0000000E+00
 32.3772  0.0000000E+00
 32.3993  0.0000000E+00
 32.4215  0.0000000E+00
 32.4436  0.0000000E+00
 32.4657  0.0000000E+00
 32.4878  0.0000000E+00
 32.5099  0.0000000E+00
 32.532  0.0000000E+00
 32.5541  0.0000000E+00
 32.5762  0.0000000E+00
 32.5983  0.0000000E+00
 32.6204  0.0000000E+00
 32.6425  0.0000000E+00
 32.6646  0.0000000E+00
 32.6868  0.0000000E+00
 32.7089  0.0000000E+00
 32.731  0.0000000E+00