File: BA_17.chi
D:\DATA\UserData\CuiTian20190403\CWH\BA\BA_17.tif: 2-theta Scan
2-Theta Angle (Degrees)
Intensity
       1481
 0.0110541  37.2735
 0.0331622  38.0148
 0.0552703  39.3411
 0.0773785  40.2085
 0.0994866  42.1655
 0.121595  43.4394
 0.143703  42.6347
 0.165811  42.5609
 0.187919  41.6117
 0.210027  41.0073
 0.232135  41.2945
 0.254244  40.7041
 0.276352  41.7791
 0.29846  40.4
 0.320568  40.0182
 0.342676  40.4301
 0.364784  42.0188
 0.386892  42.7681
 0.409  41.8574
 0.431109  41.2959
 0.453217  41.1372
 0.475325  41.5168
 0.497433  41.0679
 0.519541  40.9687
 0.541649  40.7861
 0.563757  40.0958
 0.585866  39.7777
 0.607974  40.2861
 0.630082  41.2847
 0.65219  41.7469
 0.674298  41.5333
 0.696406  41.493
 0.718514  41.8204
 0.740622  41.9735
 0.762731  41.6783
 0.784839  41.506
 0.806947  41.3737
 0.829055  41.8032
 0.851163  41.8373
 0.873271  41.888
 0.895379  41.5756
 0.917488  42.1018
 0.939596  42.7988
 0.961704  43.0837
 0.983812  42.89
 1.00592  42.681
 1.02803  42.4598
 1.05014  42.3809
 1.07224  42.7285
 1.09435  42.9668
 1.11646  43.2857
 1.13857  43.3391
 1.16068  43.6141
 1.18279  43.9969
 1.20489  44.6578
 1.227  45.0917
 1.24911  45.2849
 1.27122  45.5521
 1.29333  45.3147
 1.31543  45.1138
 1.33754  45.4273
 1.35965  45.972
 1.38176  46.311
 1.40387  46.4504
 1.42597  46.385
 1.44808  46.7392
 1.47019  46.4111
 1.4923  46.3387
 1.51441  46.4507
 1.53652  46.5607
 1.55862  46.8139
 1.58073  48.0638
 1.60284  49.2572
 1.62495  49.2515
 1.64706  49.8005
 1.66916  50.4763
 1.69127  51.0094
 1.71338  51.9229
 1.73549  52.5881
 1.7576  52.7626
 1.7797  53.2093
 1.80181  53.77
 1.82392  55.0288
 1.84603  57.0472
 1.86814  60.1416
 1.89025  67.2372
 1.91235  84.3511
 1.93446  113.658
 1.95657  150.23
 1.97868  188.191
 2.00079  226.486
 2.02289  263.971
 2.045  298.954
 2.06711  333.668
 2.08922  373.376
 2.11133  417.965
 2.13343  466.935
 2.15554  522.954
 2.17765  578.588
 2.19976  623.221
 2.22187  660.044
 2.24398  693.48
 2.26608  725.482
 2.28819  757.34
 2.3103  785.192
 2.33241  812.041
 2.35452  839.59
 2.37662  866.932
 2.39873  896.373
 2.42084  923.841
 2.44295  950.679
 2.46506  977.149
 2.48717  1005.5
 2.50927  1029.22
 2.53138  1049.83
 2.55349  1071.03
 2.5756  1093.8
 2.59771  1114.04
 2.61981  1135.75
 2.64192  1159.07
 2.66403  1179.13
 2.68614  1198.39
 2.70825  1217.14
 2.73035  1237.33
 2.75246  1254.3
 2.77457  1272.64
 2.79668  1290.84
 2.81879  1308.09
 2.8409  1325.87
 2.863  1343.44
 2.88511  1361.02
 2.90722  1376.68
 2.92933  1391.03
 2.95144  1405.99
 2.97354  1419.81
 2.99565  1434.75
 3.01776  1449.07
 3.03987  1462.08
 3.06198  1478.33
 3.08408  1490.76
 3.10619  1503.17
 3.1283  1512.59
 3.15041  1525.96
 3.17252  1536.8
 3.19463  1546.99
 3.21673  1557.5
 3.23884  1569.21
 3.26095  1581
 3.28306  1592.62
 3.30517  1603.8
 3.32727  1610.09
 3.34938  1616.25
 3.37149  1627.73
 3.3936  1638.88
 3.41571  1647.32
 3.43781  1656.89
 3.45992  1666.95
 3.48203  1676.58
 3.50414  1688.3
 3.52625  1695.19
 3.54836  1703.11
 3.57046  1712.25
 3.59257  1721.86
 3.61468  1730.01
 3.63679  1735.03
 3.6589  1742.01
 3.681  1749.49
 3.70311  1754.47
 3.72522  1760.24
 3.74733  1764.4
 3.76944  1769.19
 3.79154  1775.96
 3.81365  1781.11
 3.83576  1786.92
 3.85787  1793.3
 3.87998  1798.68
 3.90209  1805.01
 3.92419  1810.44
 3.9463  1813.22
 3.96841  1816.84
 3.99052  1822.98
 4.01263  1826.43
 4.03473  1831.98
 4.05684  1839.66
 4.07895  1842.85
 4.10106  1846.28
 4.12317  1850.45
 4.14528  1854.12
 4.16738  1856
 4.18949  1858.19
 4.2116  1860.35
 4.23371  1863.5
 4.25582  1868.5
 4.27792  1872.68
 4.30003  1874.58
 4.32214  1878.7
 4.34425  1881.32
 4.36636  1881.74
 4.38846  1885.45
 4.41057  1890.9
 4.43268  1892
 4.45479  1893.96
 4.4769  1894.25
 4.499  1894.24
 4.52111  1894.15
 4.54322  1895.6
 4.56533  1899.38
 4.58744  1902.7
 4.60955  1907.8
 4.63165  1908.03
 4.65376  1908.43
 4.67587  1907.1
 4.69798  1909.47
 4.72009  1911.9
 4.74219  1911.84
 4.7643  1910.62
 4.78641  1911.32
 4.80852  1913.02
 4.83063  1915.49
 4.85274  1915.34
 4.87484  1915.22
 4.89695  1914.48
 4.91906  1912.68
 4.94117  1914.73
 4.96328  1916.7
 4.98538  1917.58
 5.00749  1918.27
 5.0296  1921.41
 5.05171  1923.26
 5.07382  1923.7
 5.09592  1922.09
 5.11803  1923.42
 5.14014  1923.33
 5.16225  1923.88
 5.18436  1924.66
 5.20647  1924.9
 5.22857  1923.11
 5.25068  1921.77
 5.27279  1920.05
 5.2949  1920.56
 5.31701  1920.43
 5.33911  1917.59
 5.36122  1916.77
 5.38333  1918.83
 5.40544  1920.24
 5.42755  1920.63
 5.44965  1920.05
 5.47176  1919.51
 5.49387  1919.99
 5.51598  1919.31
 5.53809  1918.21
 5.5602  1916.3
 5.5823  1914.43
 5.60441  1915.54
 5.62652  1918.07
 5.64863  1919.11
 5.67074  1919.16
 5.69284  1919.38
 5.71495  1917.67
 5.73706  1915.06
 5.75917  1913.57
 5.78128  1914.1
 5.80338  1914.16
 5.82549  1913.72
 5.8476  1914.37
 5.86971  1913.07
 5.89182  1911.31
 5.91393  1911.75
 5.93603  1912.17
 5.95814  1911.37
 5.98025  1910.52
 6.00236  1908.59
 6.02447  1908.6
 6.04657  1908.58
 6.06868  1908.08
 6.09079  1907.42
 6.1129  1907.95
 6.13501  1908.96
 6.15712  1910.26
 6.17922  1909.31
 6.20133  1909.36
 6.22344  1907.8
 6.24555  1906.06
 6.26766  1904.53
 6.28976  1903.27
 6.31187  1901.89
 6.33398  1901.48
 6.35609  1902.07
 6.3782  1901.13
 6.4003  1899.89
 6.42241  1900.11
 6.44452  1899.11
 6.46663  1897.52
 6.48874  1896.96
 6.51085  1898.21
 6.53295  1897.88
 6.55506  1896.21
 6.57717  1896.71
 6.59928  1894.16
 6.62139  1894.23
 6.64349  1893.52
 6.6656  1891.34
 6.68771  1891.07
 6.70982  1891.06
 6.73193  1891.84
 6.75403  1891.54
 6.77614  1889.16
 6.79825  1887.13
 6.82036  1885.36
 6.84247  1885.16
 6.86458  1886.8
 6.88668  1885.59
 6.90879  1884.31
 6.9309  1886.2
 6.95301  1887.98
 6.97512  1886.92
 6.99722  1884.52
 7.01933  1883.47
 7.04144  1883.37
 7.06355  1883.57
 7.08566  1883.67
 7.10776  1881.26
 7.12987  1878.45
 7.15198  1877.3
 7.17409  1877.11
 7.1962  1877
 7.21831  1875.03
 7.24041  1873.34
 7.26252  1873.81
 7.28463  1875.27
 7.30674  1876.38
 7.32885  1876.48
 7.35095  1875.38
 7.37306  1873.84
 7.39517  1872.73
 7.41728  1872.1
 7.43939  1872.95
 7.46149  1871.75
 7.4836  1869.82
 7.50571  1871
 7.52782  1871.26
 7.54993  1869.63
 7.57204  1868.35
 7.59414  1869.54
 7.61625  1869.2
 7.63836  1868.95
 7.66047  1868.34
 7.68258  1868.14
 7.70468  1865.37
 7.72679  1863.84
 7.7489  1864.42
 7.77101  1867.14
 7.79312  1868.79
 7.81523  1866.91
 7.83733  1865.26
 7.85944  1864.55
 7.88155  1866.58
 7.90366  1870.3
 7.92577  1870.73
 7.94787  1868.58
 7.96998  1867.9
 7.99209  1868.24
 8.0142  1869.83
 8.03631  1873.02
 8.05841  1875.11
 8.08052  1876.17
 8.10263  1876.53
 8.12474  1876.78
 8.14685  1875.75
 8.16895  1874.45
 8.19106  1872.33
 8.21317  1870.19
 8.23528  1868.28
 8.25739  1868.18
 8.2795  1867.37
 8.3016  1866.79
 8.32371  1866.56
 8.34582  1867.23
 8.36793  1866.67
 8.39004  1867.16
 8.41214  1867.85
 8.43425  1868.26
 8.45636  1870.82
 8.47847  1872.84
 8.50058  1871.38
 8.52269  1870.28
 8.54479  1869.01
 8.5669  1867.35
 8.58901  1865.8
 8.61112  1865.61
 8.63323  1866.93
 8.65533  1866.15
 8.67744  1864.55
 8.69955  1864.07
 8.72166  1863.5
 8.74377  1864.21
 8.76587  1864.32
 8.78798  1865.4
 8.81009  1867.07
 8.8322  1865.85
 8.85431  1865.36
 8.87642  1868.09
 8.89852  1869.46
 8.92063  1869.56
 8.94274  1869.68
 8.96485  1869.97
 8.98696  1869.84
 9.00906  1870.45
 9.03117  1872.84
 9.05328  1874.36
 9.07539  1875.84
 9.0975  1878.03
 9.11961  1879.39
 9.14171  1880.86
 9.16382  1884.09
 9.18593  1887.29
 9.20804  1889.26
 9.23015  1891.23
 9.25225  1890.19
 9.27436  1891.02
 9.29647  1892.98
 9.31858  1891.76
 9.34069  1890.66
 9.36279  1888.85
 9.3849  1888.17
 9.40701  1889.59
 9.42912  1891.1
 9.45123  1890.63
 9.47334  1889.88
 9.49544  1892.41
 9.51755  1894.09
 9.53966  1894.35
 9.56177  1894.79
 9.58388  1896.61
 9.60598  1898.06
 9.62809  1900.83
 9.6502  1905.43
 9.67231  1911.38
 9.69442  1918.14
 9.71652  1927.31
 9.73863  1936.54
 9.76074  1938.75
 9.78285  1935.75
 9.80496  1933.83
 9.82707  1932.85
 9.84917  1932.66
 9.87128  1936.19
 9.89339  1941.5
 9.9155  1947.17
 9.93761  1950.89
 9.95971  1953.22
 9.98182  1957.05
 10.0039  1962.25
 10.026  1969.11
 10.0481  1976.85
 10.0703  1985.47
 10.0924  1996.92
 10.1145  2009.21
 10.1366  2022.67
 10.1587  2041.24
 10.1808  2064.25
 10.2029  2088.43
 10.225  2116.04
 10.2471  2146.76
 10.2692  2179.56
 10.2913  2212.63
 10.3134  2243.28
 10.3356  2263.28
 10.3577  2264.7
 10.3798  2247.72
 10.4019  2221.4
 10.424  2190.24
 10.4461  2160.12
 10.4682  2134.12
 10.4903  2114.8
 10.5124  2099.08
 10.5345  2085.49
 10.5566  2076.34
 10.5787  2070.01
 10.6008  2065.89
 10.623  2063.31
 10.6451  2062.1
 10.6672  2062.31
 10.6893  2065.52
 10.7114  2069.19
 10.7335  2072.66
 10.7556  2078.09
 10.7777  2083.72
 10.7998  2088.6
 10.8219  2094.89
 10.844  2100.5
 10.8661  2105.12
 10.8883  2109.19
 10.9104  2111.59
 10.9325  2113.77
 10.9546  2114.29
 10.9767  2114.04
 10.9988  2113.06
 11.0209  2110.01
 11.043  2109.64
 11.0651  2110.58
 11.0872  2110.65
 11.1093  2112.17
 11.1314  2116.12
 11.1536  2119.16
 11.1757  2121.41
 11.1978  2125.96
 11.2199  2130.71
 11.242  2136.39
 11.2641  2144.43
 11.2862  2150.99
 11.3083  2155.92
 11.3304  2162.59
 11.3525  2168.25
 11.3746  2172.19
 11.3967  2172.45
 11.4189  2167.85
 11.441  2159.11
 11.4631  2149.49
 11.4852  2139.97
 11.5073  2130.24
 11.5294  2120.49
 11.5515  2114.37
 11.5736  2107.16
 11.5957  2099.88
 11.6178  2095.33
 11.6399  2090.34
 11.662  2084.46
 11.6841  2080.56
 11.7063  2075.33
 11.7284  2068.53
 11.7505  2067.13
 11.7726  2067.57
 11.7947  2069.25
 11.8168  2074
 11.8389  2078.34
 11.861  2079.84
 11.8831  2080.77
 11.9052  2084.75
 11.9273  2088.64
 11.9494  2094.52
 11.9716  2104.38
 11.9937  2114.72
 12.0158  2124.57
 12.0379  2136.11
 12.06  2145.48
 12.0821  2150.14
 12.1042  2152.23
 12.1263  2151.45
 12.1484  2148.22
 12.1705  2144.25
 12.1926  2139.39
 12.2147  2132.18
 12.2369  2124.1
 12.259  2117.69
 12.2811  2111.77
 12.3032  2106.09
 12.3253  2099.06
 12.3474  2090.89
 12.3695  2081.92
 12.3916  2070.45
 12.4137  2056.62
 12.4358  2045.97
 12.4579  2037.01
 12.48  2027.69
 12.5021  2017.97
 12.5243  2008
 12.5464  1999.59
 12.5685  1990.96
 12.5906  1984.98
 12.6127  1980.04
 12.6348  1976.2
 12.6569  1974.54
 12.679  1972.89
 12.7011  1971
 12.7232  1969.53
 12.7453  1968.54
 12.7674  1966.83
 12.7896  1968.44
 12.8117  1969.41
 12.8338  1967.34
 12.8559  1964.93
 12.878  1965.55
 12.9001  1966.69
 12.9222  1966.58
 12.9443  1964.74
 12.9664  1964.16
 12.9885  1962.72
 13.0106  1961.09
 13.0327  1959.97
 13.0549  1958.32
 13.077  1958.09
 13.0991  1957.53
 13.1212  1957.67
 13.1433  1958.01
 13.1654  1958.5
 13.1875  1956.82
 13.2096  1956.07
 13.2317  1955.05
 13.2538  1954.49
 13.2759  1955.41
 13.298  1955.56
 13.3201  1953.18
 13.3423  1953.65
 13.3644  1956.63
 13.3865  1959.68
 13.4086  1960.7
 13.4307  1960.56
 13.4528  1961.3
 13.4749  1960.78
 13.497  1960.06
 13.5191  1960.18
 13.5412  1960.26
 13.5633  1961.57
 13.5854  1961.33
 13.6076  1961.57
 13.6297  1960.22
 13.6518  1960.66
 13.6739  1961.61
 13.696  1962.84
 13.7181  1962.75
 13.7402  1963.69
 13.7623  1966.5
 13.7844  1969.22
 13.8065  1970.59
 13.8286  1971.95
 13.8507  1970.66
 13.8729  1969.12
 13.895  1968.7
 13.9171  1968.81
 13.9392  1968.44
 13.9613  1968.73
 13.9834  1969.42
 14.0055  1970.14
 14.0276  1970.71
 14.0497  1970.84
 14.0718  1971.01
 14.0939  1971.05
 14.116  1971.79
 14.1382  1974.11
 14.1603  1975.24
 14.1824  1975.46
 14.2045  1975.58
 14.2266  1976.22
 14.2487  1977.12
 14.2708  1978.08
 14.2929  1977.49
 14.315  1977.93
 14.3371  1978.77
 14.3592  1978.85
 14.3813  1979.53
 14.4034  1980.83
 14.4256  1981.8
 14.4477  1984
 14.4698  1984.93
 14.4919  1987.19
 14.514  1989.08
 14.5361  1990.63
 14.5582  1994.01
 14.5803  1995.8
 14.6024  1997.85
 14.6245  1999.2
 14.6466  2000.14
 14.6687  2002.03
 14.6909  2002.2
 14.713  2001.81
 14.7351  2002.61
 14.7572  2003.38
 14.7793  2004.23
 14.8014  2005.69
 14.8235  2006.21
 14.8456  2006.77
 14.8677  2008.32
 14.8898  2009.27
 14.9119  2007.87
 14.934  2005.95
 14.9562  2004.49
 14.9783  2004.49
 15.0004  2004.96
 15.0225  2004.44
 15.0446  2004
 15.0667  2004.48
 15.0888  2006.73
 15.1109  2007.33
 15.133  2006.58
 15.1551  2005.92
 15.1772  2007.05
 15.1993  2007.87
 15.2215  2007.55
 15.2436  2006.69
 15.2657  2007.81
 15.2878  2008.45
 15.3099  2009.65
 15.332  2009.66
 15.3541  2009.46
 15.3762  2010.44
 15.3983  2011.26
 15.4204  2012.91
 15.4425  2012.5
 15.4646  2010.98
 15.4867  2011.01
 15.5089  2011.53
 15.531  2013.01
 15.5531  2013.85
 15.5752  2014.27
 15.5973  2013.97
 15.6194  2016.23
 15.6415  2016.44
 15.6636  2015.76
 15.6857  2017.42
 15.7078  2017.88
 15.7299  2018.07
 15.752  2018.37
 15.7742  2018.54
 15.7963  2018.19
 15.8184  2019.41
 15.8405  2020.8
 15.8626  2024.2
 15.8847  2026.68
 15.9068  2029.97
 15.9289  2034.76
 15.951  2039.37
 15.9731  2043.38
 15.9952  2044.34
 16.0173  2042.26
 16.0394  2038.23
 16.0616  2035.35
 16.0837  2032.72
 16.1058  2030.36
 16.1279  2029.08
 16.15  2028.01
 16.1721  2027.71
 16.1942  2027.95
 16.2163  2028.29
 16.2384  2029.53
 16.2605  2029.8
 16.2826  2029.15
 16.3047  2029.9
 16.3269  2030.43
 16.349  2029.94
 16.3711  2030.31
 16.3932  2029.96
 16.4153  2031.48
 16.4374  2033.48
 16.4595  2034.05
 16.4816  2036.76
 16.5037  2040.35
 16.5258  2042.51
 16.5479  2046.73
 16.57  2052.2
 16.5922  2060.4
 16.6143  2071.03
 16.6364  2082.17
 16.6585  2094.6
 16.6806  2105.02
 16.7027  2109.4
 16.7248  2108.57
 16.7469  2103.58
 16.769  2094.24
 16.7911  2083.72
 16.8132  2073.81
 16.8353  2066.36
 16.8575  2060.45
 16.8796  2055.61
 16.9017  2052.44
 16.9238  2050.67
 16.9459  2049.95
 16.968  2049.3
 16.9901  2049.78
 17.0122  2048.32
 17.0343  2046.53
 17.0564  2043.19
 17.0785  2039.62
 17.1006  2035.46
 17.1227  2032.22
 17.1449  2030.67
 17.167  2029.08
 17.1891  2028.25
 17.2112  2027.44
 17.2333  2024.82
 17.2554  2023.12
 17.2775  2021.37
 17.2996  2020.33
 17.3217  2018.75
 17.3438  2017.89
 17.3659  2017.72
 17.388  2016.73
 17.4102  2015.23
 17.4323  2014.39
 17.4544  2012.28
 17.4765  2010.45
 17.4986  2011.27
 17.5207  2012.38
 17.5428  2011.67
 17.5649  2011.43
 17.587  2012.95
 17.6091  2012.8
 17.6312  2012.28
 17.6533  2012.97
 17.6755  2012.87
 17.6976  2014.46
 17.7197  2016.38
 17.7418  2016.63
 17.7639  2017.39
 17.786  2017.64
 17.8081  2016.93
 17.8302  2014.8
 17.8523  2008.35
 17.8744  2002.68
 17.8965  1998.35
 17.9186  1995.44
 17.9408  1990.97
 17.9629  1986.24
 17.985  1983.26
 18.0071  1979.73
 18.0292  1976.03
 18.0513  1973.1
 18.0734  1969.32
 18.0955  1966.45
 18.1176  1964.16
 18.1397  1959.85
 18.1618  1955.62
 18.1839  1952.22
 18.206  1949.82
 18.2282  1947.72
 18.2503  1945.65
 18.2724  1942.21
 18.2945  1938.9
 18.3166  1937.23
 18.3387  1936.6
 18.3608  1933.33
 18.3829  1930.34
 18.405  1929.04
 18.4271  1927.23
 18.4492  1924.78
 18.4713  1923.67
 18.4935  1921.74
 18.5156  1920.58
 18.5377  1919.34
 18.5598  1917.94
 18.5819  1915.99
 18.604  1913.5
 18.6261  1911
 18.6482  1908.85
 18.6703  1907.25
 18.6924  1906.55
 18.7145  1905.36
 18.7366  1901.79
 18.7588  1898.07
 18.7809  1897.98
 18.803  1897.66
 18.8251  1897.4
 18.8472  1897.43
 18.8693  1895.23
 18.8914  1893.3
 18.9135  1892.47
 18.9356  1890.98
 18.9577  1889.56
 18.9798  1887.12
 19.0019  1885.46
 19.024  1884.89
 19.0462  1883.19
 19.0683  1880.25
 19.0904  1877.9
 19.1125  1878.09
 19.1346  1877.63
 19.1567  1875.79
 19.1788  1873.92
 19.2009  1873.38
 19.223  1873.38
 19.2451  1872.11
 19.2672  1869.51
 19.2893  1868.28
 19.3115  1867.87
 19.3336  1866.84
 19.3557  1865.54
 19.3778  1866.23
 19.3999  1866.44
 19.422  1867.4
 19.4441  1867.82
 19.4662  1865.83
 19.4883  1865.85
 19.5104  1864.69
 19.5325  1864.92
 19.5546  1865.39
 19.5768  1865.4
 19.5989  1865.67
 19.621  1865.04
 19.6431  1864.17
 19.6652  1862.75
 19.6873  1861.64
 19.7094  1861.53
 19.7315  1860.11
 19.7536  1859.69
 19.7757  1859.96
 19.7978  1860.06
 19.8199  1859.02
 19.842  1856.75
 19.8642  1855.69
 19.8863  1855.18
 19.9084  1853.65
 19.9305  1849.97
 19.9526  1848.24
 19.9747  1848.06
 19.9968  1848.25
 20.0189  1846.57
 20.041  1842.67
 20.0631  1839.96
 20.0852  1837.85
 20.1073  1834.79
 20.1295  1831.83
 20.1516  1829.34
 20.1737  1827.3
 20.1958  1822.79
 20.2179  1818.49
 20.24  1815.89
 20.2621  1814.07
 20.2842  1811.51
 20.3063  1807.66
 20.3284  1804.56
 20.3505  1802.45
 20.3726  1800.27
 20.3948  1797.18
 20.4169  1794.51
 20.439  1792.12
 20.4611  1790.4
 20.4832  1788.13
 20.5053  1785.33
 20.5274  1782.96
 20.5495  1780.74
 20.5716  1778.66
 20.5937  1777.19
 20.6158  1775.64
 20.6379  1772.91
 20.66  1770.44
 20.6822  1768.9
 20.7043  1767.91
 20.7264  1765.92
 20.7485  1763.36
 20.7706  1761.33
 20.7927  1759.69
 20.8148  1756.61
 20.8369  1753.69
 20.859  1750.96
 20.8811  1747.71
 20.9032  1745.48
 20.9253  1743.81
 20.9475  1741.65
 20.9696  1737.02
 20.9917  1734.07
 21.0138  1731.47
 21.0359  1727.66
 21.058  1725.87
 21.0801  1724.87
 21.1022  1723.18
 21.1243  1721.26
 21.1464  1720.16
 21.1685  1718.13
 21.1906  1715.05
 21.2128  1714.32
 21.2349  1713.48
 21.257  1710.9
 21.2791  1709
 21.3012  1708.68
 21.3233  1705.17
 21.3454  1700.4
 21.3675  1698.65
 21.3896  1696.62
 21.4117  1694.07
 21.4338  1691.95
 21.4559  1690.78
 21.478  1688.3
 21.5002  1685.97
 21.5223  1683.61
 21.5444  1681.3
 21.5665  1679.53
 21.5886  1677.08
 21.6107  1673.72
 21.6328  1672.27
 21.6549  1671.12
 21.677  1668.5
 21.6991  1667.12
 21.7212  1664.87
 21.7433  1662.09
 21.7655  1660
 21.7876  1659.18
 21.8097  1656.35
 21.8318  1653.98
 21.8539  1653.53
 21.876  1652.09
 21.8981  1648.54
 21.9202  1647.44
 21.9423  1646.94
 21.9644  1644.83
 21.9865  1644.59
 22.0086  1643.76
 22.0308  1641.26
 22.0529  1639.23
 22.075  1637.64
 22.0971  1636.21
 22.1192  1635.2
 22.1413  1634.28
 22.1634  1632.39
 22.1855  1629.93
 22.2076  1628.3
 22.2297  1627.93
 22.2518  1626.39
 22.2739  1624.18
 22.2961  1622.62
 22.3182  1622.58
 22.3403  1621.39
 22.3624  1620.51
 22.3845  1619.57
 22.4066  1618.52
 22.4287  1616.73
 22.4508  1616.21
 22.4729  1614.83
 22.495  1613.69
 22.5171  1613.04
 22.5392  1611.24
 22.5614  1609.27
 22.5835  1608.31
 22.6056  1606.42
 22.6277  1604.67
 22.6498  1604.03
 22.6719  1602.57
 22.694  1601.29
 22.7161  1599.16
 22.7382  1597.04
 22.7603  1595.64
 22.7824  1593.68
 22.8045  1591.58
 22.8266  1591.08
 22.8488  1588.58
 22.8709  1587.84
 22.893  1586.82
 22.9151  1584.49
 22.9372  1582.81
 22.9593  1582.34
 22.9814  1577.67
 23.0035  1576.12
 23.0256  1574.81
 23.0477  1572.62
 23.0698  1572.26
 23.0919  1570.76
 23.1141  1567.26
 23.1362  1538.51
 23.1583  1448.73
 23.1804  1365.63
 23.2025  1307.23
 23.2246  1272.19
 23.2467  1239.11
 23.2688  1202.88
 23.2909  1167.8
 23.313  1158.07
 23.3351  1140.01
 23.3572  1121.72
 23.3794  1102.04
 23.4015  1085.37
 23.4236  1066.33
 23.4457  1050.21
 23.4678  1035.44
 23.4899  1020.09
 23.512  1008.63
 23.5341  1009.84
 23.5562  1003.64
 23.5783  998.433
 23.6004  990.659
 23.6225  984.941
 23.6446  976.922
 23.6668  971.212
 23.6889  963.723
 23.711  958.974
 23.7331  952.583
 23.7552  947.893
 23.7773  944.71
 23.7994  943.225
 23.8215  940.733
 23.8436  938.501
 23.8657  938.756
 23.8878  936.989
 23.9099  936.952
 23.9321  936.042
 23.9542  935.814
 23.9763  934.604
 23.9984  934.823
 24.0205  933.649
 24.0426  934.108
 24.0647  930.048
 24.0868  928.594
 24.1089  922.877
 24.131  916.422
 24.1531  911.116
 24.1752  901.604
 24.1974  892.426
 24.2195  882.551
 24.2416  869.577
 24.2637  858.175
 24.2858  846.251
 24.3079  832.876
 24.33  818.426
 24.3521  803.539
 24.3742  786.61
 24.3963  768.528
 24.4184  749.558
 24.4405  738.751
 24.4626  720.753
 24.4848  697.92
 24.5069  677.357
 24.529  646.31
 24.5511  623.67
 24.5732  582.288
 24.5953  544.312
 24.6174  498.531
 24.6395  467.803
 24.6616  431.132
 24.6837  383.004
 24.7058  322.581
 24.7279  245.94
 24.7501  123.284
 24.7722  21.3468
 24.7943  0.0346319
 24.8164  0.0000000E+00
 24.8385  0.0000000E+00
 24.8606  0.0000000E+00
 24.8827  0.0000000E+00
 24.9048  0.0000000E+00
 24.9269  0.0000000E+00
 24.949  0.0000000E+00
 24.9711  0.0000000E+00
 24.9932  0.0000000E+00
 25.0154  0.0000000E+00
 25.0375  0.0000000E+00
 25.0596  0.0000000E+00
 25.0817  0.0000000E+00
 25.1038  0.0000000E+00
 25.1259  0.0000000E+00
 25.148  0.0000000E+00
 25.1701  0.0000000E+00
 25.1922  0.0000000E+00
 25.2143  0.0000000E+00
 25.2364  0.0000000E+00
 25.2585  0.0000000E+00
 25.2806  0.0000000E+00
 25.3028  0.0000000E+00
 25.3249  0.0000000E+00
 25.347  0.0000000E+00
 25.3691  0.0000000E+00
 25.3912  0.0000000E+00
 25.4133  0.0000000E+00
 25.4354  0.0000000E+00
 25.4575  0.0000000E+00
 25.4796  0.0000000E+00
 25.5017  0.0000000E+00
 25.5238  0.0000000E+00
 25.5459  0.0000000E+00
 25.5681  0.0000000E+00
 25.5902  0.0000000E+00
 25.6123  0.0000000E+00
 25.6344  0.0000000E+00
 25.6565  0.0000000E+00
 25.6786  0.0000000E+00
 25.7007  0.0000000E+00
 25.7228  0.0000000E+00
 25.7449  0.0000000E+00
 25.767  0.0000000E+00
 25.7891  0.0000000E+00
 25.8112  0.0000000E+00
 25.8334  0.0000000E+00
 25.8555  0.0000000E+00
 25.8776  0.0000000E+00
 25.8997  0.0000000E+00
 25.9218  0.0000000E+00
 25.9439  0.0000000E+00
 25.966  0.0000000E+00
 25.9881  0.0000000E+00
 26.0102  0.0000000E+00
 26.0323  0.0000000E+00
 26.0544  0.0000000E+00
 26.0765  0.0000000E+00
 26.0986  0.0000000E+00
 26.1208  0.0000000E+00
 26.1429  0.0000000E+00
 26.165  0.0000000E+00
 26.1871  0.0000000E+00
 26.2092  0.0000000E+00
 26.2313  0.0000000E+00
 26.2534  0.0000000E+00
 26.2755  0.0000000E+00
 26.2976  0.0000000E+00
 26.3197  0.0000000E+00
 26.3418  0.0000000E+00
 26.3639  0.0000000E+00
 26.3861  0.0000000E+00
 26.4082  0.0000000E+00
 26.4303  0.0000000E+00
 26.4524  0.0000000E+00
 26.4745  0.0000000E+00
 26.4966  0.0000000E+00
 26.5187  0.0000000E+00
 26.5408  0.0000000E+00
 26.5629  0.0000000E+00
 26.585  0.0000000E+00
 26.6071  0.0000000E+00
 26.6292  0.0000000E+00
 26.6514  0.0000000E+00
 26.6735  0.0000000E+00
 26.6956  0.0000000E+00
 26.7177  0.0000000E+00
 26.7398  0.0000000E+00
 26.7619  0.0000000E+00
 26.784  0.0000000E+00
 26.8061  0.0000000E+00
 26.8282  0.0000000E+00
 26.8503  0.0000000E+00
 26.8724  0.0000000E+00
 26.8945  0.0000000E+00
 26.9167  0.0000000E+00
 26.9388  0.0000000E+00
 26.9609  0.0000000E+00
 26.983  0.0000000E+00
 27.0051  0.0000000E+00
 27.0272  0.0000000E+00
 27.0493  0.0000000E+00
 27.0714  0.0000000E+00
 27.0935  0.0000000E+00
 27.1156  0.0000000E+00
 27.1377  0.0000000E+00
 27.1598  0.0000000E+00
 27.182  0.0000000E+00
 27.2041  0.0000000E+00
 27.2262  0.0000000E+00
 27.2483  0.0000000E+00
 27.2704  0.0000000E+00
 27.2925  0.0000000E+00
 27.3146  0.0000000E+00
 27.3367  0.0000000E+00
 27.3588  0.0000000E+00
 27.3809  0.0000000E+00
 27.403  0.0000000E+00
 27.4251  0.0000000E+00
 27.4472  0.0000000E+00
 27.4694  0.0000000E+00
 27.4915  0.0000000E+00
 27.5136  0.0000000E+00
 27.5357  0.0000000E+00
 27.5578  0.0000000E+00
 27.5799  0.0000000E+00
 27.602  0.0000000E+00
 27.6241  0.0000000E+00
 27.6462  0.0000000E+00
 27.6683  0.0000000E+00
 27.6904  0.0000000E+00
 27.7125  0.0000000E+00
 27.7347  0.0000000E+00
 27.7568  0.0000000E+00
 27.7789  0.0000000E+00
 27.801  0.0000000E+00
 27.8231  0.0000000E+00
 27.8452  0.0000000E+00
 27.8673  0.0000000E+00
 27.8894  0.0000000E+00
 27.9115  0.0000000E+00
 27.9336  0.0000000E+00
 27.9557  0.0000000E+00
 27.9778  0.0000000E+00
 27.9999  0.0000000E+00
 28.0221  0.0000000E+00
 28.0442  0.0000000E+00
 28.0663  0.0000000E+00
 28.0884  0.0000000E+00
 28.1105  0.0000000E+00
 28.1326  0.0000000E+00
 28.1547  0.0000000E+00
 28.1768  0.0000000E+00
 28.1989  0.0000000E+00
 28.221  0.0000000E+00
 28.2431  0.0000000E+00
 28.2652  0.0000000E+00
 28.2874  0.0000000E+00
 28.3095  0.0000000E+00
 28.3316  0.0000000E+00
 28.3537  0.0000000E+00
 28.3758  0.0000000E+00
 28.3979  0.0000000E+00
 28.42  0.0000000E+00
 28.4421  0.0000000E+00
 28.4642  0.0000000E+00
 28.4863  0.0000000E+00
 28.5084  0.0000000E+00
 28.5305  0.0000000E+00
 28.5527  0.0000000E+00
 28.5748  0.0000000E+00
 28.5969  0.0000000E+00
 28.619  0.0000000E+00
 28.6411  0.0000000E+00
 28.6632  0.0000000E+00
 28.6853  0.0000000E+00
 28.7074  0.0000000E+00
 28.7295  0.0000000E+00
 28.7516  0.0000000E+00
 28.7737  0.0000000E+00
 28.7958  0.0000000E+00
 28.818  0.0000000E+00
 28.8401  0.0000000E+00
 28.8622  0.0000000E+00
 28.8843  0.0000000E+00
 28.9064  0.0000000E+00
 28.9285  0.0000000E+00
 28.9506  0.0000000E+00
 28.9727  0.0000000E+00
 28.9948  0.0000000E+00
 29.0169  0.0000000E+00
 29.039  0.0000000E+00
 29.0611  0.0000000E+00
 29.0832  0.0000000E+00
 29.1054  0.0000000E+00
 29.1275  0.0000000E+00
 29.1496  0.0000000E+00
 29.1717  0.0000000E+00
 29.1938  0.0000000E+00
 29.2159  0.0000000E+00
 29.238  0.0000000E+00
 29.2601  0.0000000E+00
 29.2822  0.0000000E+00
 29.3043  0.0000000E+00
 29.3264  0.0000000E+00
 29.3485  0.0000000E+00
 29.3707  0.0000000E+00
 29.3928  0.0000000E+00
 29.4149  0.0000000E+00
 29.437  0.0000000E+00
 29.4591  0.0000000E+00
 29.4812  0.0000000E+00
 29.5033  0.0000000E+00
 29.5254  0.0000000E+00
 29.5475  0.0000000E+00
 29.5696  0.0000000E+00
 29.5917  0.0000000E+00
 29.6138  0.0000000E+00
 29.636  0.0000000E+00
 29.6581  0.0000000E+00
 29.6802  0.0000000E+00
 29.7023  0.0000000E+00
 29.7244  0.0000000E+00
 29.7465  0.0000000E+00
 29.7686  0.0000000E+00
 29.7907  0.0000000E+00
 29.8128  0.0000000E+00
 29.8349  0.0000000E+00
 29.857  0.0000000E+00
 29.8791  0.0000000E+00
 29.9012  0.0000000E+00
 29.9234  0.0000000E+00
 29.9455  0.0000000E+00
 29.9676  0.0000000E+00
 29.9897  0.0000000E+00
 30.0118  0.0000000E+00
 30.0339  0.0000000E+00
 30.056  0.0000000E+00
 30.0781  0.0000000E+00
 30.1002  0.0000000E+00
 30.1223  0.0000000E+00
 30.1444  0.0000000E+00
 30.1665  0.0000000E+00
 30.1887  0.0000000E+00
 30.2108  0.0000000E+00
 30.2329  0.0000000E+00
 30.255  0.0000000E+00
 30.2771  0.0000000E+00
 30.2992  0.0000000E+00
 30.3213  0.0000000E+00
 30.3434  0.0000000E+00
 30.3655  0.0000000E+00
 30.3876  0.0000000E+00
 30.4097  0.0000000E+00
 30.4318  0.0000000E+00
 30.454  0.0000000E+00
 30.4761  0.0000000E+00
 30.4982  0.0000000E+00
 30.5203  0.0000000E+00
 30.5424  0.0000000E+00
 30.5645  0.0000000E+00
 30.5866  0.0000000E+00
 30.6087  0.0000000E+00
 30.6308  0.0000000E+00
 30.6529  0.0000000E+00
 30.675  0.0000000E+00
 30.6971  0.0000000E+00
 30.7192  0.0000000E+00
 30.7414  0.0000000E+00
 30.7635  0.0000000E+00
 30.7856  0.0000000E+00
 30.8077  0.0000000E+00
 30.8298  0.0000000E+00
 30.8519  0.0000000E+00
 30.874  0.0000000E+00
 30.8961  0.0000000E+00
 30.9182  0.0000000E+00
 30.9403  0.0000000E+00
 30.9624  0.0000000E+00
 30.9845  0.0000000E+00
 31.0067  0.0000000E+00
 31.0288  0.0000000E+00
 31.0509  0.0000000E+00
 31.073  0.0000000E+00
 31.0951  0.0000000E+00
 31.1172  0.0000000E+00
 31.1393  0.0000000E+00
 31.1614  0.0000000E+00
 31.1835  0.0000000E+00
 31.2056  0.0000000E+00
 31.2277  0.0000000E+00
 31.2498  0.0000000E+00
 31.272  0.0000000E+00
 31.2941  0.0000000E+00
 31.3162  0.0000000E+00
 31.3383  0.0000000E+00
 31.3604  0.0000000E+00
 31.3825  0.0000000E+00
 31.4046  0.0000000E+00
 31.4267  0.0000000E+00
 31.4488  0.0000000E+00
 31.4709  0.0000000E+00
 31.493  0.0000000E+00
 31.5151  0.0000000E+00
 31.5373  0.0000000E+00
 31.5594  0.0000000E+00
 31.5815  0.0000000E+00
 31.6036  0.0000000E+00
 31.6257  0.0000000E+00
 31.6478  0.0000000E+00
 31.6699  0.0000000E+00
 31.692  0.0000000E+00
 31.7141  0.0000000E+00
 31.7362  0.0000000E+00
 31.7583  0.0000000E+00
 31.7804  0.0000000E+00
 31.8025  0.0000000E+00
 31.8247  0.0000000E+00
 31.8468  0.0000000E+00
 31.8689  0.0000000E+00
 31.891  0.0000000E+00
 31.9131  0.0000000E+00
 31.9352  0.0000000E+00
 31.9573  0.0000000E+00
 31.9794  0.0000000E+00
 32.0015  0.0000000E+00
 32.0236  0.0000000E+00
 32.0457  0.0000000E+00
 32.0678  0.0000000E+00
 32.09  0.0000000E+00
 32.1121  0.0000000E+00
 32.1342  0.0000000E+00
 32.1563  0.0000000E+00
 32.1784  0.0000000E+00
 32.2005  0.0000000E+00
 32.2226  0.0000000E+00
 32.2447  0.0000000E+00
 32.2668  0.0000000E+00
 32.2889  0.0000000E+00
 32.311  0.0000000E+00
 32.3331  0.0000000E+00
 32.3553  0.0000000E+00
 32.3774  0.0000000E+00
 32.3995  0.0000000E+00
 32.4216  0.0000000E+00
 32.4437  0.0000000E+00
 32.4658  0.0000000E+00
 32.4879  0.0000000E+00
 32.51  0.0000000E+00
 32.5321  0.0000000E+00
 32.5542  0.0000000E+00
 32.5763  0.0000000E+00
 32.5984  0.0000000E+00
 32.6205  0.0000000E+00
 32.6427  0.0000000E+00
 32.6648  0.0000000E+00
 32.6869  0.0000000E+00
 32.709  0.0000000E+00
 32.7311  0.0000000E+00