File: BA_2.chi
D:\DATA\UserData\CuiTian20190403\CWH\BA\BA_2.tif: 2-theta Scan
2-Theta Angle (Degrees)
Intensity
       1128
 0.011673  45.293
 0.0350191  45.6434
 0.0583651  44.182
 0.0817112  40.3839
 0.105057  38.3511
 0.128403  37.3398
 0.151749  36.9473
 0.175095  37.9308
 0.198441  37.2616
 0.221787  37.0092
 0.245133  38.6166
 0.26848  38.7217
 0.291826  37.2549
 0.315172  36.7055
 0.338518  36.9797
 0.361864  37.286
 0.38521  36.4211
 0.408556  36.1156
 0.431902  36.9056
 0.455248  37.7183
 0.478594  38.1063
 0.50194  38.39
 0.525286  37.8702
 0.548632  37.6201
 0.571978  37.2733
 0.595324  37.0898
 0.61867  37.4349
 0.642016  37.5866
 0.665362  37.66
 0.688708  37.8443
 0.712054  37.803
 0.7354  37.4521
 0.758746  37.3434
 0.782093  37.2834
 0.805439  37.0921
 0.828785  36.9815
 0.852131  37.6689
 0.875477  37.9748
 0.898823  37.9858
 0.922169  37.4957
 0.945515  36.8484
 0.968861  37.4674
 0.992207  37.8506
 1.01555  37.5352
 1.0389  37.7063
 1.06225  37.8517
 1.08559  37.4967
 1.10894  37.7549
 1.13228  38.2799
 1.15563  37.8946
 1.17898  37.7902
 1.20232  38.2453
 1.22567  38.2804
 1.24901  38.5523
 1.27236  38.7922
 1.29571  39.3438
 1.31905  39.0363
 1.3424  38.3152
 1.36574  38.3072
 1.38909  38.8852
 1.41244  39.4132
 1.43578  40.056
 1.45913  40.2255
 1.48247  40.2453
 1.50582  40.473
 1.52917  40.1252
 1.55251  40.3725
 1.57586  40.4879
 1.5992  40.3017
 1.62255  40.5514
 1.6459  40.7844
 1.66924  40.7605
 1.69259  40.9013
 1.71593  41.2124
 1.73928  41.6625
 1.76263  41.9542
 1.78597  42.0575
 1.80932  43.0968
 1.83266  44.4044
 1.85601  45.4243
 1.87936  47.374
 1.9027  53.4996
 1.92605  67.9941
 1.94939  89.8751
 1.97274  115.209
 1.99609  142.223
 2.01943  166.156
 2.04278  189.671
 2.06613  214.739
 2.08947  238.989
 2.11282  265.409
 2.13616  297.247
 2.15951  328.461
 2.18286  363.025
 2.2062  402.467
 2.22955  436.604
 2.25289  462.966
 2.27624  486.964
 2.29959  510.249
 2.32293  530.687
 2.34628  550.639
 2.36962  571.82
 2.39297  591.846
 2.41632  611.174
 2.43966  630.626
 2.46301  648.292
 2.48635  665.285
 2.5097  684.816
 2.53305  703.488
 2.55639  721.159
 2.57974  737.821
 2.60308  754.359
 2.62643  769.489
 2.64978  782.95
 2.67312  796.993
 2.69647  812.268
 2.71981  825.512
 2.74316  837.976
 2.76651  851.816
 2.78985  867.82
 2.8132  882.059
 2.83654  894.488
 2.85989  905.48
 2.88324  917.835
 2.90658  931.011
 2.92993  943.23
 2.95328  954.633
 2.97662  964.158
 2.99997  973.201
 3.02331  984.654
 3.04666  996.132
 3.07001  1005.33
 3.09335  1014.15
 3.1167  1024.81
 3.14004  1033.22
 3.16339  1040.86
 3.18674  1050.83
 3.21008  1060.18
 3.23343  1069.32
 3.25677  1077.08
 3.28012  1084.5
 3.30347  1092.79
 3.32681  1100.11
 3.35016  1107.41
 3.3735  1115.36
 3.39685  1120.06
 3.4202  1123.83
 3.44354  1129.73
 3.46689  1135.8
 3.49023  1143.2
 3.51358  1150.79
 3.53693  1159.07
 3.56027  1165
 3.58362  1171.84
 3.60696  1178.44
 3.63031  1182.94
 3.65366  1188.01
 3.677  1192.91
 3.70035  1196.64
 3.72369  1200.29
 3.74704  1207.13
 3.77039  1212.77
 3.79373  1215.59
 3.81708  1219.89
 3.84042  1225.18
 3.86377  1230.13
 3.88712  1234.02
 3.91046  1235.26
 3.93381  1237.37
 3.95715  1241.55
 3.9805  1246.46
 4.00385  1249.8
 4.02719  1251.61
 4.05054  1253.6
 4.07388  1256.57
 4.09723  1259.52
 4.12058  1263.44
 4.14392  1265.89
 4.16727  1270.16
 4.19062  1273.26
 4.21396  1273.9
 4.23731  1275.61
 4.26065  1278.02
 4.284  1279.81
 4.30735  1283.7
 4.33069  1286.61
 4.35404  1287.57
 4.37738  1288.57
 4.40073  1290.3
 4.42408  1293.33
 4.44742  1295.57
 4.47077  1295.96
 4.49411  1297.86
 4.51746  1299.93
 4.54081  1299.98
 4.56415  1300.95
 4.5875  1301.35
 4.61084  1301.85
 4.63419  1303.26
 4.65754  1303.76
 4.68088  1305.88
 4.70423  1309.77
 4.72757  1311.01
 4.75092  1311.16
 4.77427  1311.47
 4.79761  1313.43
 4.82096  1315.49
 4.8443  1315.55
 4.86765  1315.39
 4.891  1313.09
 4.91434  1313.19
 4.93769  1314.96
 4.96103  1316.81
 4.98438  1318.13
 5.00773  1317.21
 5.03107  1316.13
 5.05442  1316.18
 5.07777  1317.73
 5.10111  1317.56
 5.12446  1315.86
 5.1478  1314.93
 5.17115  1315.3
 5.1945  1316.6
 5.21784  1317.51
 5.24119  1317.82
 5.26453  1317.28
 5.28788  1316.41
 5.31123  1315.75
 5.33457  1317.06
 5.35792  1316.6
 5.38126  1315.7
 5.40461  1315.48
 5.42796  1317.09
 5.4513  1317.71
 5.47465  1317.39
 5.49799  1317.02
 5.52134  1315.89
 5.54469  1316.25
 5.56803  1316.2
 5.59138  1314.43
 5.61472  1313.81
 5.63807  1313.2
 5.66142  1312.75
 5.68476  1312.64
 5.70811  1313.36
 5.73145  1312.83
 5.7548  1313.28
 5.77815  1314.13
 5.80149  1314.24
 5.82484  1312.38
 5.84818  1310.86
 5.87153  1310.24
 5.89488  1312.46
 5.91822  1312.04
 5.94157  1310.34
 5.96491  1310.57
 5.98826  1310.26
 6.01161  1308.54
 6.03495  1308.37
 6.0583  1307.76
 6.08164  1307.36
 6.10499  1307.02
 6.12834  1305.94
 6.15168  1305.66
 6.17503  1305.45
 6.19838  1304.92
 6.22172  1304.93
 6.24507  1303.62
 6.26841  1302.6
 6.29176  1301.74
 6.31511  1302.64
 6.33845  1304.17
 6.3618  1303.86
 6.38514  1303.3
 6.40849  1303.76
 6.43184  1303.47
 6.45518  1303.26
 6.47853  1302.7
 6.50187  1302.21
 6.52522  1303.04
 6.54857  1302.48
 6.57191  1300.68
 6.59526  1300.46
 6.6186  1299.24
 6.64195  1297.25
 6.6653  1295.54
 6.68864  1295.97
 6.71199  1296.76
 6.73533  1297.05
 6.75868  1293.51
 6.78203  1292.56
 6.80537  1293.97
 6.82872  1292.51
 6.85206  1291.65
 6.87541  1290.85
 6.89876  1289.44
 6.9221  1289.51
 6.94545  1290.09
 6.96879  1289.87
 6.99214  1289.11
 7.01549  1288.79
 7.03883  1288.43
 7.06218  1286.69
 7.08552  1285.95
 7.10887  1286.47
 7.13222  1286
 7.15556  1285.93
 7.17891  1285.79
 7.20226  1284.63
 7.2256  1283.13
 7.24895  1283.75
 7.27229  1284.16
 7.29564  1284.14
 7.31899  1284.54
 7.34233  1284.38
 7.36568  1281.62
 7.38902  1279.21
 7.41237  1277.89
 7.43572  1276.46
 7.45906  1277.14
 7.48241  1277.68
 7.50575  1277.89
 7.5291  1277.29
 7.55245  1276.63
 7.57579  1277.43
 7.59914  1278.11
 7.62248  1278.55
 7.64583  1277.63
 7.66918  1276.25
 7.69252  1274.87
 7.71587  1274.36
 7.73921  1273.19
 7.76256  1272.63
 7.78591  1272.22
 7.80925  1272.73
 7.8326  1272.44
 7.85594  1272.72
 7.87929  1272.95
 7.90264  1273.28
 7.92598  1272.02
 7.94933  1271.47
 7.97267  1271.45
 7.99602  1271.56
 8.01937  1270.97
 8.04271  1269.31
 8.06606  1268.42
 8.08941  1268.54
 8.11275  1269.87
 8.1361  1268.97
 8.15944  1267.06
 8.18279  1266.13
 8.20613  1266.47
 8.22948  1265.13
 8.25283  1264.26
 8.27617  1265.5
 8.29952  1265.37
 8.32287  1265.44
 8.34621  1265.91
 8.36956  1266.48
 8.3929  1267.4
 8.41625  1267.5
 8.4396  1267.03
 8.46294  1267.82
 8.48629  1269.07
 8.50963  1269.02
 8.53298  1268.64
 8.55633  1268.82
 8.57967  1269.07
 8.60302  1271.52
 8.62636  1273.75
 8.64971  1275.38
 8.67306  1275.06
 8.6964  1276.76
 8.71975  1280.95
 8.74309  1287.54
 8.76644  1295.55
 8.78979  1307.37
 8.81313  1321.13
 8.83648  1336.75
 8.85982  1348.69
 8.88317  1349.52
 8.90652  1341.44
 8.92986  1329.12
 8.95321  1316.24
 8.97655  1305.94
 8.9999  1296.98
 9.02325  1289.9
 9.04659  1286.34
 9.06994  1283.42
 9.09328  1282.34
 9.11663  1281.37
 9.13998  1279.63
 9.16332  1279.8
 9.18667  1284.68
 9.21002  1291.42
 9.23336  1302.48
 9.25671  1317.96
 9.28005  1315.22
 9.3034  1298.38
 9.32675  1286.46
 9.35009  1284.29
 9.37344  1283.8
 9.39678  1282.6
 9.42013  1280.57
 9.44348  1278.82
 9.46682  1276.64
 9.49017  1276.32
 9.51351  1275.66
 9.53686  1287.01
 9.56021  1332.45
 9.58355  1390.53
 9.6069  1390.03
 9.63024  1376.31
 9.65359  1325.58
 9.67694  1273.81
 9.70028  1270.53
 9.72363  1269.37
 9.74697  1268.14
 9.77032  1267.71
 9.79367  1267.4
 9.81701  1266.75
 9.84036  1266.86
 9.8637  1267.62
 9.88705  1267.92
 9.9104  1269.08
 9.93374  1270.84
 9.95709  1271.85
 9.98043  1278.14
 10.0038  1293.73
 10.0271  1299.86
 10.0505  1305.31
 10.0738  1310.21
 10.0972  1314.62
 10.1205  1317.51
 10.1439  1318.65
 10.1672  1320.46
 10.1905  1321.92
 10.2139  1324.99
 10.2372  1328.08
 10.2606  1329.17
 10.2839  1327.11
 10.3073  1322.7
 10.3306  1319.43
 10.354  1317.06
 10.3773  1313.4
 10.4007  1310.96
 10.424  1311.67
 10.4474  1312.58
 10.4707  1316.92
 10.494  1321.99
 10.5174  1325.47
 10.5407  1327.59
 10.5641  1330.03
 10.5874  1333.02
 10.6108  1336.43
 10.6341  1341.86
 10.6575  1364.58
 10.6808  1418.03
 10.7042  1417.81
 10.7275  1365.06
 10.7509  1362.24
 10.7742  1377.27
 10.7975  1412.83
 10.8209  1452.46
 10.8442  1451.48
 10.8676  1413.96
 10.8909  1386.96
 10.9143  1378.84
 10.9376  1377.28
 10.961  1377.91
 10.9843  1381.97
 11.0077  1386.55
 11.031  1389.18
 11.0544  1391.71
 11.0777  1399
 11.101  1414.31
 11.1244  1444.73
 11.1477  1485.63
 11.1711  1527.47
 11.1944  1572.31
 11.2178  1613.92
 11.2411  1773.68
 11.2645  2054.09
 11.2878  2316.27
 11.3112  2376.9
 11.3345  2155.53
 11.3579  1871.23
 11.3812  1657.08
 11.4045  1549.42
 11.4279  1504.47
 11.4512  1481.97
 11.4746  1465.72
 11.4979  1455.49
 11.5213  1447.76
 11.5446  1440.06
 11.568  1435.51
 11.5913  1432.75
 11.6147  1431.27
 11.638  1430.38
 11.6614  1430.79
 11.6847  1430.69
 11.708  1432.27
 11.7314  1436.41
 11.7547  1443.8
 11.7781  1452.99
 11.8014  1462.62
 11.8248  1478.09
 11.8481  1491.5
 11.8715  1497.89
 11.8948  1503.43
 11.9182  1502.4
 11.9415  1497.13
 11.9648  1488.71
 11.9882  1479.32
 12.0115  1472.89
 12.0349  1468.75
 12.0582  1463.34
 12.0816  1460
 12.1049  1457.9
 12.1283  1456.75
 12.1516  1456.72
 12.175  1458.09
 12.1983  1459.63
 12.2217  1459.75
 12.245  1461.27
 12.2683  1464.3
 12.2917  1466.04
 12.315  1469.09
 12.3384  1470.15
 12.3617  1470.71
 12.3851  1475.64
 12.4084  1481.07
 12.4318  1485.15
 12.4551  1491.16
 12.4785  1501.28
 12.5018  1517.35
 12.5252  1534.28
 12.5485  1548.16
 12.5718  1561.76
 12.5952  1566.16
 12.6185  1559.48
 12.6419  1552.53
 12.6652  1546.92
 12.6886  1541.58
 12.7119  1539.02
 12.7353  1538.83
 12.7586  1539.83
 12.782  1544.37
 12.8053  1551.12
 12.8287  1558.11
 12.852  1566.34
 12.8753  1578.22
 12.8987  1596.37
 12.922  1625.6
 12.9454  1675.94
 12.9687  1739.23
 12.9921  1772.29
 13.0154  1826.8
 13.0388  1899.48
 13.0621  1978.31
 13.0855  2007.51
 13.1088  1971.3
 13.1322  1896.21
 13.1555  1753.36
 13.1788  1611.61
 13.2022  1581.87
 13.2255  1570.06
 13.2489  1565.08
 13.2722  1562.01
 13.2956  1558.11
 13.3189  1558.52
 13.3423  1557.54
 13.3656  1556.32
 13.389  1559.79
 13.4123  1560.68
 13.4357  1563.55
 13.459  1566.13
 13.4823  1569.55
 13.5057  1574.17
 13.529  1577.49
 13.5524  1579.37
 13.5757  1580.05
 13.5991  1576.7
 13.6224  1577.52
 13.6458  1576.72
 13.6691  1576.19
 13.6925  1579.01
 13.7158  1578.79
 13.7391  1579.92
 13.7625  1580.17
 13.7858  1579.45
 13.8092  1580.71
 13.8325  1582.82
 13.8559  1586.39
 13.8792  1587.9
 13.9026  1588.88
 13.9259  1591.54
 13.9493  1591.72
 13.9726  1592.88
 13.996  1595.19
 14.0193  1599.04
 14.0426  1600.95
 14.066  1603.43
 14.0893  1606.98
 14.1127  1608.1
 14.136  1608.45
 14.1594  1609.78
 14.1827  1611.79
 14.2061  1615.26
 14.2294  1618.28
 14.2528  1619.53
 14.2761  1623.33
 14.2995  1625.27
 14.3228  1626.72
 14.3461  1628.85
 14.3695  1631.9
 14.3928  1635.05
 14.4162  1636.48
 14.4395  1637.82
 14.4629  1641.42
 14.4862  1649
 14.5096  1659.77
 14.5329  1668.07
 14.5563  1672.96
 14.5796  1679.63
 14.603  1682.72
 14.6263  1680.5
 14.6496  1674.24
 14.673  1670.12
 14.6963  1666.74
 14.7197  1667.54
 14.743  1668.36
 14.7664  1668.34
 14.7897  1668.6
 14.8131  1669.4
 14.8364  1671.32
 14.8598  1673.27
 14.8831  1675.73
 14.9064  1678.19
 14.9298  1681.58
 14.9531  1684.67
 14.9765  1685.78
 14.9998  1687.24
 15.0232  1687.99
 15.0465  1691.07
 15.0699  1693.36
 15.0932  1696.71
 15.1166  1698.7
 15.1399  1699.85
 15.1633  1703.06
 15.1866  1706.09
 15.2099  1706.47
 15.2333  1709.56
 15.2566  1713.2
 15.28  1714.25
 15.3033  1714.97
 15.3267  1717.36
 15.35  1721.11
 15.3734  1723.42
 15.3967  1722.87
 15.4201  1722.29
 15.4434  1725.51
 15.4668  1729.77
 15.4901  1733.55
 15.5134  1738.3
 15.5368  1743.41
 15.5601  1746.44
 15.5835  1748.96
 15.6068  1752.73
 15.6302  1758.53
 15.6535  1765.98
 15.6769  1770.87
 15.7002  1773.35
 15.7236  1777.04
 15.7469  1780.74
 15.7703  1782.81
 15.7936  1782.67
 15.8169  1785.07
 15.8403  1789.44
 15.8636  1791.7
 15.887  1792.36
 15.9103  1794.32
 15.9337  1797.92
 15.957  1800.52
 15.9804  1801.88
 16.0037  1802.88
 16.0271  1803.42
 16.0504  1805.84
 16.0738  1813.1
 16.0971  1818.45
 16.1204  1822.78
 16.1438  1828.35
 16.1671  1831.43
 16.1905  1829.21
 16.2138  1827.12
 16.2372  1823.76
 16.2605  1821.66
 16.2839  1820.74
 16.3072  1819.2
 16.3306  1819.42
 16.3539  1820.22
 16.3773  1822.29
 16.4006  1824
 16.4239  1826.49
 16.4473  1827.16
 16.4706  1828.58
 16.494  1831.2
 16.5173  1832.24
 16.5407  1832.98
 16.564  1834.16
 16.5874  1836.04
 16.6107  1839.65
 16.6341  1842.57
 16.6574  1844.87
 16.6807  1846.59
 16.7041  1848.21
 16.7274  1851.61
 16.7508  1855.78
 16.7741  1858.69
 16.7975  1861.31
 16.8208  1864.39
 16.8442  1866.27
 16.8675  1869.88
 16.8909  1873.31
 16.9142  1875.72
 16.9376  1879.02
 16.9609  1880.52
 16.9842  1884.27
 17.0076  1886.92
 17.0309  1887.73
 17.0543  1889.07
 17.0776  1891.44
 17.101  1892.93
 17.1243  1893.64
 17.1477  1894.6
 17.171  1897.42
 17.1944  1898.98
 17.2177  1904.05
 17.2411  1908.32
 17.2644  1910.35
 17.2877  1914.8
 17.3111  1919.96
 17.3344  1923.51
 17.3578  1927.47
 17.3811  1929.8
 17.4045  1934.98
 17.4278  1940.9
 17.4512  1950.33
 17.4745  1958.72
 17.4979  1966.72
 17.5212  1975.1
 17.5446  1990.86
 17.5679  2008.99
 17.5912  2028.69
 17.6146  2053.83
 17.6379  2082.07
 17.6613  2101.56
 17.6846  2110.5
 17.708  2110.97
 17.7313  2108.74
 17.7547  2104.4
 17.778  2098.92
 17.8014  2095.92
 17.8247  2093.2
 17.8481  2087.17
 17.8714  2081.27
 17.8947  2074.19
 17.9181  2066.66
 17.9414  2059.11
 17.9648  2052.89
 17.9881  2048.11
 18.0115  2042.82
 18.0348  2036.16
 18.0582  2031.69
 18.0815  2031.93
 18.1049  2030.29
 18.1282  2030.62
 18.1516  2032.74
 18.1749  2034.83
 18.1982  2035.68
 18.2216  2039.79
 18.2449  2046.11
 18.2683  2053.85
 18.2916  2061.95
 18.315  2072.31
 18.3383  2087.1
 18.3617  2117.14
 18.385  2169.67
 18.4084  2221.21
 18.4317  2274.84
 18.455  2360.17
 18.4784  2434.14
 18.5017  2422.45
 18.5251  2337.7
 18.5484  2272.48
 18.5718  2227.77
 18.5951  2178
 18.6185  2132.57
 18.6418  2106.7
 18.6652  2091.27
 18.6885  2082.84
 18.7119  2077.51
 18.7352  2073.01
 18.7585  2070.47
 18.7819  2070.79
 18.8052  2071.95
 18.8286  2073.02
 18.8519  2073.68
 18.8753  2074.67
 18.8986  2075.6
 18.922  2078.99
 18.9453  2080.14
 18.9687  2081.11
 18.992  2082.75
 19.0154  2084.6
 19.0387  2085.06
 19.062  2084.05
 19.0854  2082.39
 19.1087  2081.9
 19.1321  2078.97
 19.1554  2077.27
 19.1788  2076.42
 19.2021  2078.4
 19.2255  2079.37
 19.2488  2081.3
 19.2722  2083.22
 19.2955  2084.86
 19.3189  2086.14
 19.3422  2087.79
 19.3655  2089.76
 19.3889  2093.13
 19.4122  2094.81
 19.4356  2096.67
 19.4589  2098.38
 19.4823  2100.95
 19.5056  2101.67
 19.529  2105.36
 19.5523  2111.6
 19.5757  2119.88
 19.599  2125.21
 19.6224  2127.77
 19.6457  2126.82
 19.669  2126.22
 19.6924  2124.89
 19.7157  2123.83
 19.7391  2126.04
 19.7624  2129.89
 19.7858  2132.31
 19.8091  2134.77
 19.8325  2139.93
 19.8558  2141.56
 19.8792  2143.39
 19.9025  2145.75
 19.9259  2147.39
 19.9492  2147.63
 19.9725  2147.07
 19.9959  2147.47
 20.0192  2150.36
 20.0426  2153.23
 20.0659  2153.11
 20.0893  2153.56
 20.1126  2155.75
 20.136  2156.54
 20.1593  2158.1
 20.1827  2159.64
 20.206  2160.18
 20.2293  2159.39
 20.2527  2158.87
 20.276  2161.71
 20.2994  2166.03
 20.3227  2169.22
 20.3461  2168.71
 20.3694  2168.44
 20.3928  2170.28
 20.4161  2171.19
 20.4395  2170.17
 20.4628  2171.35
 20.4862  2175.04
 20.5095  2177.2
 20.5328  2184.08
 20.5562  2200.32
 20.5795  2222.17
 20.6029  2236
 20.6262  2228.74
 20.6496  2211.35
 20.6729  2203.69
 20.6963  2203.57
 20.7196  2209.84
 20.743  2212.09
 20.7663  2209.44
 20.7897  2204.99
 20.813  2202.3
 20.8363  2202.47
 20.8597  2202.28
 20.883  2203.72
 20.9064  2206.11
 20.9297  2205.45
 20.9531  2204.87
 20.9764  2204.81
 20.9998  2206.8
 21.0231  2211.14
 21.0465  2213.75
 21.0698  2215.56
 21.0932  2218.41
 21.1165  2221.16
 21.1398  2224.5
 21.1632  2226.62
 21.1865  2231.07
 21.2099  2234.14
 21.2332  2233.54
 21.2566  2234.59
 21.2799  2235.92
 21.3033  2239.27
 21.3266  2241.56
 21.35  2244.98
 21.3733  2251.63
 21.3967  2259.9
 21.42  2268.04
 21.4433  2275.74
 21.4667  2285.6
 21.49  2298.82
 21.5134  2313.83
 21.5367  2340.66
 21.5601  2406.63
 21.5834  2477.12
 21.6068  2497.39
 21.6301  2624.2
 21.6535  2693.63
 21.6768  2760.72
 21.7002  2771.13
 21.7235  2712.43
 21.7468  2644.2
 21.7702  2548.75
 21.7935  2440.82
 21.8169  2406.43
 21.8402  2370.64
 21.8636  2339.54
 21.8869  2316.12
 21.9103  2301.61
 21.9336  2293.43
 21.957  2288.67
 21.9803  2281.78
 22.0036  2279.47
 22.027  2278.2
 22.0503  2279.39
 22.0737  2279.67
 22.097  2278.87
 22.1204  2278.46
 22.1437  2278.23
 22.1671  2277.75
 22.1904  2276.62
 22.2138  2275.85
 22.2371  2275.57
 22.2605  2275.49
 22.2838  2276.01
 22.3071  2278.18
 22.3305  2281.11
 22.3538  2282.97
 22.3772  2283.96
 22.4005  2286.81
 22.4239  2288.85
 22.4472  2290.26
 22.4706  2290.61
 22.4939  2292.31
 22.5173  2294.29
 22.5406  2298.14
 22.564  2303.55
 22.5873  2309.77
 22.6106  2329.7
 22.634  2355.94
 22.6573  2375.2
 22.6807  2381.45
 22.704  2362
 22.7274  2337.56
 22.7507  2322.31
 22.7741  2312.78
 22.7974  2307.61
 22.8208  2304.84
 22.8441  2300.72
 22.8675  2295.51
 22.8908  2293.12
 22.9141  2293.22
 22.9375  2294.21
 22.9608  2294.57
 22.9842  2295.12
 23.0075  2294.39
 23.0309  2293.54
 23.0542  2293.53
 23.0776  2295.36
 23.1009  2294.65
 23.1243  2292.94
 23.1476  2293.07
 23.171  2291.45
 23.1943  2290.2
 23.2176  2292.48
 23.241  2292.04
 23.2643  2292.88
 23.2877  2293.84
 23.311  2291.25
 23.3344  2290.39
 23.3577  2290.73
 23.3811  2259.77
 23.4044  2160.12
 23.4278  2031.54
 23.4511  1936.22
 23.4744  1849.48
 23.4978  1816.95
 23.5211  1828.03
 23.5445  1836.63
 23.5678  1821.71
 23.5912  1787.02
 23.6145  1742.98
 23.6379  1702.28
 23.6612  1666.36
 23.6846  1635.45
 23.7079  1603.27
 23.7313  1570.54
 23.7546  1550.41
 23.7779  1553.91
 23.8013  1568.87
 23.8246  1584.33
 23.848  1599.3
 23.8713  1615.76
 23.8947  1631.99
 23.918  1647.34
 23.9414  1662.74
 23.9647  1676.96
 23.9881  1692.85
 24.0114  1706.38
 24.0348  1721.43
 24.0581  1734.96
 24.0814  1747.94
 24.1048  1763.19
 24.1281  1779.86
 24.1515  1797.35
 24.1748  1809.44
 24.1982  1826.01
 24.2215  1839.98
 24.2449  1855.31
 24.2682  1871.99
 24.2916  1888.98
 24.3149  1906.38
 24.3383  1927.81
 24.3616  1962.76
 24.3849  2012.23
 24.4083  2065.35
 24.4316  2083.17
 24.455  2075.43
 24.4783  2065.3
 24.5017  2061.51
 24.525  2062.01
 24.5484  2068.07
 24.5717  2079.34
 24.5951  2087.91
 24.6184  2090.76
 24.6418  2050.78
 24.6651  1984.59
 24.6884  1907.09
 24.7118  1829.58
 24.7351  1743.6
 24.7585  1569.54
 24.7818  1389.51
 24.8052  1188.01
 24.8285  1090.95
 24.8519  1090.4
 24.8752  1095.3
 24.8986  1063.25
 24.9219  935.149
 24.9453  671.262
 24.9686  323.613
 24.9919  49.6033
 25.0153  0.129273
 25.0386  0.0000000E+00
 25.062  0.0000000E+00
 25.0853  0.0000000E+00
 25.1087  0.0000000E+00
 25.132  0.0000000E+00
 25.1554  0.0000000E+00
 25.1787  0.0000000E+00
 25.2021  0.0000000E+00
 25.2254  0.0000000E+00
 25.2487  0.0000000E+00
 25.2721  0.0000000E+00
 25.2954  0.0000000E+00
 25.3188  0.0000000E+00
 25.3421  0.0000000E+00
 25.3655  0.0000000E+00
 25.3888  0.0000000E+00
 25.4122  0.0000000E+00
 25.4355  0.0000000E+00
 25.4589  0.0000000E+00
 25.4822  0.0000000E+00
 25.5056  0.0000000E+00
 25.5289  0.0000000E+00
 25.5522  0.0000000E+00
 25.5756  0.0000000E+00
 25.5989  0.0000000E+00
 25.6223  0.0000000E+00
 25.6456  0.0000000E+00
 25.669  0.0000000E+00
 25.6923  0.0000000E+00
 25.7157  0.0000000E+00
 25.739  0.0000000E+00
 25.7624  0.0000000E+00
 25.7857  0.0000000E+00
 25.8091  0.0000000E+00
 25.8324  0.0000000E+00
 25.8557  0.0000000E+00
 25.8791  0.0000000E+00
 25.9024  0.0000000E+00
 25.9258  0.0000000E+00
 25.9491  0.0000000E+00
 25.9725  0.0000000E+00
 25.9958  0.0000000E+00
 26.0192  0.0000000E+00
 26.0425  0.0000000E+00
 26.0659  0.0000000E+00
 26.0892  0.0000000E+00
 26.1126  0.0000000E+00
 26.1359  0.0000000E+00
 26.1592  0.0000000E+00
 26.1826  0.0000000E+00
 26.2059  0.0000000E+00
 26.2293  0.0000000E+00
 26.2526  0.0000000E+00
 26.276  0.0000000E+00
 26.2993  0.0000000E+00
 26.3227  0.0000000E+00