File: BA_3.chi
D:\DATA\UserData\CuiTian20190403\CWH\BA\BA_3.tif: 2-theta Scan
2-Theta Angle (Degrees)
Intensity
       1165
 0.0116243  47.342
 0.034873  46.5495
 0.0581216  43.7856
 0.0813703  40.2246
 0.104619  40.3778
 0.127868  40.9432
 0.151116  39.5559
 0.174365  40.3881
 0.197614  39.1836
 0.220862  37.8621
 0.244111  38.2384
 0.267359  38.4044
 0.290608  37.6691
 0.313857  37.6717
 0.337105  36.7541
 0.360354  37.3444
 0.383603  38.1521
 0.406851  37.122
 0.4301  36.5521
 0.453349  36.8573
 0.476597  36.5603
 0.499846  36.7161
 0.523095  36.8805
 0.546343  36.8463
 0.569592  36.4023
 0.592841  36.3834
 0.616089  36.8443
 0.639338  37.4882
 0.662587  37.4172
 0.685835  37.3776
 0.709084  37.6308
 0.732332  37.3877
 0.755581  37.2889
 0.77883  37.051
 0.802078  37.0183
 0.825327  37.1539
 0.848576  36.895
 0.871824  36.9862
 0.895073  37.52
 0.918322  37.9102
 0.94157  37.131
 0.964819  36.8168
 0.988068  37.05
 1.01132  37.7396
 1.03456  38.0516
 1.05781  37.8917
 1.08106  37.8695
 1.10431  37.449
 1.12756  37.5375
 1.15081  38.0008
 1.17406  38.2162
 1.19731  38.091
 1.22055  38.0202
 1.2438  38.2517
 1.26705  38.6601
 1.2903  38.5549
 1.31355  38.1565
 1.3368  38.1549
 1.36005  38.4027
 1.38329  38.684
 1.40654  38.9352
 1.42979  39.0052
 1.45304  38.6873
 1.47629  39.0267
 1.49954  39.6555
 1.52279  39.5451
 1.54604  38.986
 1.56928  39.2342
 1.59253  39.7861
 1.61578  40.0078
 1.63903  40.3301
 1.66228  41.0786
 1.68553  41.1095
 1.70878  41.157
 1.73202  41.4106
 1.75527  41.4809
 1.77852  41.7217
 1.80177  42.0826
 1.82502  42.7907
 1.84827  43.8799
 1.87152  46.1822
 1.89476  51.0692
 1.91801  62.4224
 1.94126  81.7586
 1.96451  105.634
 1.98776  131.807
 2.01101  156.268
 2.03426  181.113
 2.05751  204.141
 2.08075  227.804
 2.104  253.409
 2.12725  279.732
 2.1505  309.247
 2.17375  343.137
 2.197  379.854
 2.22025  416.268
 2.24349  445.952
 2.26674  471.031
 2.28999  493.637
 2.31324  513.952
 2.33649  532.99
 2.35974  552.571
 2.38299  572.428
 2.40624  592.206
 2.42948  611.235
 2.45273  631.626
 2.47598  651.988
 2.49923  669.018
 2.52248  686.571
 2.54573  701.468
 2.56898  715.919
 2.59222  729.635
 2.61547  745.953
 2.63872  759.939
 2.66197  774.298
 2.68522  790.648
 2.70847  806.61
 2.73172  818.903
 2.75497  832.106
 2.77821  845.341
 2.80146  858.011
 2.82471  871.22
 2.84796  883.906
 2.87121  897.985
 2.89446  910.441
 2.91771  920.869
 2.94095  930.579
 2.9642  940.398
 2.98745  952.231
 3.0107  963.087
 3.03395  972.766
 3.0572  983.54
 3.08045  993.257
 3.10369  1004.07
 3.12694  1014.46
 3.15019  1022.93
 3.17344  1031.61
 3.19669  1040.22
 3.21994  1047.88
 3.24319  1053.63
 3.26644  1058.62
 3.28968  1063.43
 3.31293  1071.77
 3.33618  1083.76
 3.35943  1094.8
 3.38268  1103.98
 3.40593  1109.9
 3.42918  1110.79
 3.45242  1112.43
 3.47567  1119.31
 3.49892  1127.76
 3.52217  1134.22
 3.54542  1138.4
 3.56867  1145.16
 3.59192  1153.02
 3.61517  1157.22
 3.63841  1160.63
 3.66166  1164.45
 3.68491  1167.79
 3.70816  1173.53
 3.73141  1181.55
 3.75466  1186.89
 3.77791  1191.02
 3.80115  1197.14
 3.8244  1200.4
 3.84765  1203.6
 3.8709  1208.79
 3.89415  1213.03
 3.9174  1216.42
 3.94065  1218.85
 3.96389  1220.22
 3.98714  1223.49
 4.01039  1228.62
 4.03364  1231.95
 4.05689  1234.34
 4.08014  1237.61
 4.10339  1240.77
 4.12664  1243.62
 4.14988  1244.92
 4.17313  1245.49
 4.19638  1246.2
 4.21963  1249.22
 4.24288  1253.16
 4.26613  1254.55
 4.28938  1255.17
 4.31262  1258.08
 4.33587  1260.27
 4.35912  1262.02
 4.38237  1265.93
 4.40562  1268.62
 4.42887  1270.33
 4.45212  1274.24
 4.47537  1276.87
 4.49861  1277.07
 4.52186  1277.98
 4.54511  1278.94
 4.56836  1278.81
 4.59161  1280.59
 4.61486  1283.39
 4.63811  1285.27
 4.66135  1285.14
 4.6846  1283.35
 4.70785  1283.73
 4.7311  1284.08
 4.75435  1286.02
 4.7776  1287.66
 4.80085  1287.62
 4.82409  1285.82
 4.84734  1287.3
 4.87059  1288.51
 4.89384  1288.97
 4.91709  1290.26
 4.94034  1290.63
 4.96359  1290.16
 4.98684  1290.28
 5.01008  1291.04
 5.03333  1290.71
 5.05658  1290.46
 5.07983  1290.03
 5.10308  1289.55
 5.12633  1292.29
 5.14958  1293.61
 5.17282  1293.03
 5.19607  1293.17
 5.21932  1293.51
 5.24257  1291.77
 5.26582  1292.57
 5.28907  1293.33
 5.31232  1291.5
 5.33557  1291.09
 5.35881  1290.4
 5.38206  1291.31
 5.40531  1291.46
 5.42856  1290.41
 5.45181  1291.85
 5.47506  1293.43
 5.49831  1293.99
 5.52155  1292.29
 5.5448  1289.81
 5.56805  1290.52
 5.5913  1290.27
 5.61455  1289.56
 5.6378  1290.25
 5.66105  1289.42
 5.68429  1289.9
 5.70754  1290.37
 5.73079  1288.79
 5.75404  1288.2
 5.77729  1287.18
 5.80054  1288.54
 5.82379  1289.53
 5.84704  1287.65
 5.87028  1286.08
 5.89353  1287.6
 5.91678  1288.17
 5.94003  1287.2
 5.96328  1285.65
 5.98653  1286.05
 6.00978  1285.44
 6.03302  1283.57
 6.05627  1282.21
 6.07952  1281.25
 6.10277  1280.5
 6.12602  1279.71
 6.14927  1279.98
 6.17252  1280.07
 6.19576  1279.81
 6.21901  1279.94
 6.24226  1279.76
 6.26551  1279.61
 6.28876  1279.32
 6.31201  1278.17
 6.33526  1277.15
 6.35851  1277.03
 6.38175  1277.87
 6.405  1277.66
 6.42825  1276.18
 6.4515  1275.18
 6.47475  1276.19
 6.498  1278.59
 6.52125  1277.88
 6.54449  1276.52
 6.56774  1274.61
 6.59099  1273.11
 6.61424  1272.74
 6.63749  1271.66
 6.66074  1271.36
 6.68399  1271.98
 6.70724  1272.26
 6.73048  1271.71
 6.75373  1272.25
 6.77698  1270.55
 6.80023  1267.94
 6.82348  1266.76
 6.84673  1267.12
 6.86998  1265.85
 6.89322  1265.35
 6.91647  1265.82
 6.93972  1265.36
 6.96297  1265.11
 6.98622  1264.45
 7.00947  1263.83
 7.03272  1263.6
 7.05596  1264.17
 7.07921  1264.27
 7.10246  1263.22
 7.12571  1261.72
 7.14896  1261.74
 7.17221  1261.44
 7.19546  1259.45
 7.21871  1259.23
 7.24195  1258.73
 7.2652  1257.08
 7.28845  1255.67
 7.3117  1254.44
 7.33495  1254
 7.3582  1254.56
 7.38145  1254.45
 7.4047  1254.71
 7.42794  1253.52
 7.45119  1252.74
 7.47444  1252.45
 7.49769  1251.56
 7.52094  1251.59
 7.54419  1251.73
 7.56744  1251.09
 7.59068  1250.99
 7.61393  1251.38
 7.63718  1252.05
 7.66043  1251.4
 7.68368  1250.72
 7.70693  1249.83
 7.73018  1248.92
 7.75342  1248.44
 7.77667  1246.81
 7.79992  1246.72
 7.82317  1248.89
 7.84642  1249.55
 7.86967  1247.83
 7.89292  1246.94
 7.91616  1246.08
 7.93941  1246.86
 7.96266  1247.53
 7.98591  1246.6
 8.00916  1244.72
 8.03241  1244.76
 8.05566  1245.48
 8.07891  1244.74
 8.10215  1243.64
 8.1254  1242.49
 8.14865  1244.51
 8.1719  1244.38
 8.19515  1241.59
 8.2184  1240.6
 8.24165  1240.83
 8.26489  1241.01
 8.28814  1241.47
 8.31139  1242.57
 8.33464  1242.48
 8.35789  1241.48
 8.38114  1240.71
 8.40439  1240.24
 8.42764  1240.26
 8.45088  1240.97
 8.47413  1241.02
 8.49738  1240.64
 8.52063  1240.06
 8.54388  1240.44
 8.56713  1240.73
 8.59038  1240.79
 8.61362  1241.74
 8.63687  1242.02
 8.66012  1243.06
 8.68337  1244.24
 8.70662  1245.3
 8.72987  1246.63
 8.75312  1249.41
 8.77637  1256.3
 8.79961  1264.47
 8.82286  1274.99
 8.84611  1284.85
 8.86936  1288.86
 8.89261  1284.96
 8.91586  1276.53
 8.93911  1267.37
 8.96235  1260.36
 8.9856  1254.9
 9.00885  1250.11
 9.0321  1247.34
 9.05535  1244.76
 9.0786  1243.84
 9.10185  1244.85
 9.12509  1247.68
 9.14834  1252.08
 9.17159  1258.63
 9.19484  1269.9
 9.21809  1282.38
 9.24134  1282.83
 9.26459  1273.37
 9.28784  1260.97
 9.31108  1251.63
 9.33433  1247.55
 9.35758  1245.83
 9.38083  1243.78
 9.40408  1242.72
 9.42733  1242.17
 9.45058  1240.55
 9.47382  1240.4
 9.49707  1241.13
 9.52032  1242.33
 9.54357  1250.51
 9.56682  1285.12
 9.59007  1336.94
 9.61332  1363.33
 9.63657  1348.98
 9.65981  1310.68
 9.68306  1248.23
 9.70631  1243.66
 9.72956  1242.4
 9.75281  1244.24
 9.77606  1246
 9.79931  1246.24
 9.82255  1246.03
 9.8458  1246.67
 9.86905  1245.74
 9.8923  1245.74
 9.91555  1246.6
 9.9388  1247.85
 9.96205  1250.82
 9.9853  1255.71
 10.0085  1262.2
 10.0318  1268.57
 10.055  1274.09
 10.0783  1276.35
 10.1015  1278.92
 10.1248  1280.62
 10.148  1283.79
 10.1713  1286.66
 10.1945  1288.31
 10.2178  1288.01
 10.241  1284.45
 10.2643  1278.15
 10.2875  1273.26
 10.3108  1270.07
 10.334  1265.03
 10.3573  1259.29
 10.3805  1267.01
 10.4038  1274.79
 10.427  1277.54
 10.4503  1277.77
 10.4735  1280.03
 10.4968  1282.22
 10.52  1282.65
 10.5433  1284.07
 10.5665  1286.1
 10.5898  1286.91
 10.613  1288.08
 10.6363  1292.45
 10.6595  1301.16
 10.6828  1319.29
 10.706  1334.65
 10.7293  1315.65
 10.7525  1302.76
 10.7757  1300.18
 10.799  1301.08
 10.8222  1302.52
 10.8455  1301.06
 10.8687  1298.68
 10.892  1299.38
 10.9152  1302.21
 10.9385  1305.9
 10.9617  1309.41
 10.985  1311.55
 11.0082  1313.26
 11.0315  1315.48
 11.0547  1318.63
 11.078  1323.14
 11.1012  1328.37
 11.1245  1335.67
 11.1477  1349.42
 11.171  1374.44
 11.1942  1421.13
 11.2175  1508.72
 11.2407  1696.71
 11.264  1912.53
 11.2872  2052.6
 11.3105  1955.61
 11.3337  1695.88
 11.357  1534.38
 11.3802  1453.01
 11.4035  1410.41
 11.4267  1387.72
 11.45  1374.76
 11.4732  1364.85
 11.4965  1354.33
 11.5197  1347.02
 11.543  1340.45
 11.5662  1335.4
 11.5895  1333.9
 11.6127  1332.53
 11.6359  1333.94
 11.6592  1335.11
 11.6824  1335.4
 11.7057  1338.39
 11.7289  1341.63
 11.7522  1345.53
 11.7754  1353.66
 11.7987  1366.73
 11.8219  1382.54
 11.8452  1403.88
 11.8684  1428.41
 11.8917  1449.97
 11.9149  1458.61
 11.9382  1459.93
 11.9614  1456.82
 11.9847  1443.21
 12.0079  1424.89
 12.0312  1404.78
 12.0544  1384.35
 12.0777  1368.88
 12.1009  1359.78
 12.1242  1354.03
 12.1474  1349.76
 12.1707  1348.36
 12.1939  1347.77
 12.2172  1347.76
 12.2404  1347.67
 12.2637  1348.93
 12.2869  1350.85
 12.3102  1351.54
 12.3334  1351.03
 12.3567  1351.59
 12.3799  1354.31
 12.4032  1355.66
 12.4264  1358.49
 12.4497  1361.37
 12.4729  1366.89
 12.4961  1381.18
 12.5194  1394.04
 12.5426  1405.09
 12.5659  1416.37
 12.5891  1427.77
 12.6124  1436.16
 12.6356  1440.83
 12.6589  1442.01
 12.6821  1438.32
 12.7054  1434.43
 12.7286  1433.11
 12.7519  1432.63
 12.7751  1435.51
 12.7984  1441.43
 12.8216  1446.35
 12.8449  1453.59
 12.8681  1464.3
 12.8914  1485.64
 12.9146  1535.68
 12.9379  1612.57
 12.9611  1666.31
 12.9844  1660.94
 13.0076  1695.19
 13.0309  1748.22
 13.0541  1881.28
 13.0774  2015.43
 13.1006  2019.48
 13.1239  1915.55
 13.1471  1819.54
 13.1704  1659.65
 13.1936  1526.79
 13.2169  1496.01
 13.2401  1480.82
 13.2634  1471.4
 13.2866  1468.41
 13.3099  1468.19
 13.3331  1467.29
 13.3563  1467.1
 13.3796  1467.43
 13.4028  1470.47
 13.4261  1474.64
 13.4493  1475.98
 13.4726  1479.1
 13.4958  1482.8
 13.5191  1486.55
 13.5423  1488.87
 13.5656  1487.65
 13.5888  1488.6
 13.6121  1488.44
 13.6353  1488.53
 13.6586  1489.58
 13.6818  1490.16
 13.7051  1490.16
 13.7283  1487.93
 13.7516  1488.82
 13.7748  1489.26
 13.7981  1489.39
 13.8213  1488.94
 13.8446  1490.62
 13.8678  1493.54
 13.8911  1497.42
 13.9143  1500.04
 13.9376  1501.92
 13.9608  1503.44
 13.9841  1507.06
 14.0073  1512.41
 14.0306  1516.49
 14.0538  1520.11
 14.0771  1524.69
 14.1003  1532.28
 14.1236  1540.34
 14.1468  1549.62
 14.1701  1559.36
 14.1933  1567.53
 14.2165  1570.01
 14.2398  1568.96
 14.263  1565.04
 14.2863  1561.57
 14.3095  1556.29
 14.3328  1552.64
 14.356  1551.28
 14.3793  1550.79
 14.4025  1551.42
 14.4258  1549.89
 14.449  1550.9
 14.4723  1558.45
 14.4955  1567.35
 14.5188  1571.67
 14.542  1574.22
 14.5653  1576.26
 14.5885  1574.91
 14.6118  1571.69
 14.635  1571.38
 14.6583  1570.96
 14.6815  1568.99
 14.7048  1568.71
 14.728  1569.5
 14.7513  1570.72
 14.7745  1572
 14.7978  1572.11
 14.821  1572.43
 14.8443  1575.08
 14.8675  1577.07
 14.8908  1579.42
 14.914  1581.18
 14.9373  1584.63
 14.9605  1585.6
 14.9838  1588.08
 15.007  1592.19
 15.0303  1594.18
 15.0535  1594.15
 15.0767  1594.25
 15.1  1597.07
 15.1232  1600.15
 15.1465  1601.96
 15.1697  1605.3
 15.193  1607.21
 15.2162  1607.82
 15.2395  1609.65
 15.2627  1610.75
 15.286  1611.2
 15.3092  1612.43
 15.3325  1614.2
 15.3557  1618.9
 15.379  1620.88
 15.4022  1623.02
 15.4255  1624.73
 15.4487  1627.4
 15.472  1632.83
 15.4952  1634.2
 15.5185  1636.5
 15.5417  1638.12
 15.565  1643.29
 15.5882  1646.55
 15.6115  1647.57
 15.6347  1652.37
 15.658  1653.95
 15.6812  1656.86
 15.7045  1660.53
 15.7277  1663.89
 15.751  1667.3
 15.7742  1667.05
 15.7975  1671.73
 15.8207  1678.51
 15.844  1687.99
 15.8672  1700.23
 15.8905  1705.41
 15.9137  1709.93
 15.9369  1710.35
 15.9602  1704.97
 15.9834  1704.37
 16.0067  1703.24
 16.0299  1706.98
 16.0532  1708.75
 16.0764  1715.47
 16.0997  1724.75
 16.1229  1729.77
 16.1462  1738.88
 16.1694  1743.32
 16.1927  1748.04
 16.2159  1748.21
 16.2392  1742.06
 16.2624  1735.73
 16.2857  1726.72
 16.3089  1724.58
 16.3322  1720.75
 16.3554  1719.05
 16.3787  1722.57
 16.4019  1723.73
 16.4252  1725.05
 16.4484  1722.96
 16.4717  1725.17
 16.4949  1728.51
 16.5182  1729.06
 16.5414  1731.43
 16.5647  1731.72
 16.5879  1734.59
 16.6112  1734.1
 16.6344  1737.58
 16.6577  1741.84
 16.6809  1743.88
 16.7042  1748.14
 16.7274  1748.35
 16.7507  1752.63
 16.7739  1754.45
 16.7971  1754
 16.8204  1756.88
 16.8436  1758.17
 16.8669  1762.17
 16.8901  1767.55
 16.9134  1771.59
 16.9366  1774.41
 16.9599  1776.24
 16.9831  1780.49
 17.0064  1781.27
 17.0296  1785.24
 17.0529  1785.55
 17.0761  1787.72
 17.0994  1787.46
 17.1226  1788.34
 17.1459  1791.34
 17.1691  1792.58
 17.1924  1796.09
 17.2156  1798.19
 17.2389  1801.51
 17.2621  1803.08
 17.2854  1806.11
 17.3086  1811.19
 17.3319  1814.64
 17.3551  1817.04
 17.3784  1820.99
 17.4016  1824.7
 17.4249  1828.65
 17.4481  1835.61
 17.4714  1843.74
 17.4946  1850.32
 17.5179  1858.08
 17.5411  1870.58
 17.5644  1883.98
 17.5876  1899.61
 17.6109  1914.74
 17.6341  1928
 17.6573  1934.46
 17.6806  1935.13
 17.7038  1934.14
 17.7271  1931.51
 17.7503  1929.56
 17.7736  1927.9
 17.7968  1929.59
 17.8201  1927.75
 17.8433  1922.99
 17.8666  1919.08
 17.8898  1919.21
 17.9131  1920.47
 17.9363  1920.86
 17.9596  1919.24
 17.9828  1917.48
 18.0061  1917.28
 18.0293  1914.91
 18.0526  1912.91
 18.0758  1911.22
 18.0991  1912.56
 18.1223  1915.92
 18.1456  1920
 18.1688  1922.45
 18.1921  1926.79
 18.2153  1932.88
 18.2386  1939.5
 18.2618  1945.29
 18.2851  1954.39
 18.3083  1968.31
 18.3316  1985.18
 18.3548  2014.34
 18.3781  2067.75
 18.4013  2151.49
 18.4246  2504.76
 18.4478  2966.67
 18.4711  3177.51
 18.4943  3171.55
 18.5175  3043.51
 18.5408  2707.15
 18.564  2310.8
 18.5873  2141.17
 18.6105  2067.44
 18.6338  2030.8
 18.657  2008.12
 18.6803  1992.24
 18.7035  1981.02
 18.7268  1976.34
 18.75  1971.11
 18.7733  1964.74
 18.7965  1961.82
 18.8198  1962.08
 18.843  1962.1
 18.8663  1965.49
 18.8895  1966.46
 18.9128  1966.01
 18.936  1969.52
 18.9593  1976.74
 18.9825  1984.95
 19.0058  1983.92
 19.029  1977.95
 19.0523  1974.99
 19.0755  1975.68
 19.0988  1979
 19.122  1980.16
 19.1453  1981.72
 19.1685  1983.76
 19.1918  1984.52
 19.215  1987.1
 19.2383  1989.18
 19.2615  1989.92
 19.2848  1988.62
 19.308  1988.02
 19.3313  1986.75
 19.3545  1984.98
 19.3777  1986.7
 19.401  1988.43
 19.4242  1988.66
 19.4475  1985.91
 19.4707  1987.09
 19.494  1991.93
 19.5172  1995.15
 19.5405  2000.87
 19.5637  2008.05
 19.587  2014.17
 19.6102  2017.98
 19.6335  2022.57
 19.6567  2020.8
 19.68  2016.16
 19.7032  2011.66
 19.7265  2012.44
 19.7497  2013.03
 19.773  2015.74
 19.7962  2017.9
 19.8195  2016.78
 19.8427  2020.62
 19.866  2025.5
 19.8892  2025.84
 19.9125  2026.9
 19.9357  2027.37
 19.959  2028.42
 19.9822  2030.31
 20.0055  2032.83
 20.0287  2033.34
 20.052  2032.82
 20.0752  2032.48
 20.0985  2032.98
 20.1217  2033.25
 20.145  2035.15
 20.1682  2037.13
 20.1915  2038.63
 20.2147  2041.16
 20.2379  2042.25
 20.2612  2043.69
 20.2844  2045.6
 20.3077  2047.35
 20.3309  2049.92
 20.3542  2050.46
 20.3774  2052.34
 20.4007  2055.97
 20.4239  2057.91
 20.4472  2059.11
 20.4704  2062.77
 20.4937  2067.14
 20.5169  2072.99
 20.5402  2082.68
 20.5634  2093.99
 20.5867  2099.99
 20.6099  2100.92
 20.6332  2095.33
 20.6564  2088.06
 20.6797  2085.25
 20.7029  2085.42
 20.7262  2085.78
 20.7494  2086.77
 20.7727  2085.19
 20.7959  2083.58
 20.8192  2085.12
 20.8424  2087.29
 20.8657  2088.16
 20.8889  2086.72
 20.9122  2086.38
 20.9354  2086.76
 20.9587  2087.73
 20.9819  2090.65
 21.0052  2093.88
 21.0284  2095.94
 21.0517  2097.44
 21.0749  2098.29
 21.0982  2100.61
 21.1214  2104.58
 21.1446  2108.33
 21.1679  2114.14
 21.1911  2117.98
 21.2144  2119.29
 21.2376  2121.57
 21.2609  2124.86
 21.2841  2129.59
 21.3074  2135.16
 21.3306  2141.29
 21.3539  2151.25
 21.3771  2161.32
 21.4004  2175.54
 21.4236  2190.45
 21.4469  2202.69
 21.4701  2217.94
 21.4934  2235.76
 21.5166  2259.06
 21.5399  2295.43
 21.5631  2357.07
 21.5864  2441.34
 21.6096  2522.05
 21.6329  2580.46
 21.6561  2619.9
 21.6794  2651.94
 21.7026  2668.34
 21.7259  2627.6
 21.7491  2549.2
 21.7724  2474.79
 21.7956  2405.02
 21.8189  2345.13
 21.8421  2293.94
 21.8654  2255.2
 21.8886  2222.29
 21.9119  2199.53
 21.9351  2183.15
 21.9583  2173.24
 21.9816  2165.58
 22.0048  2161.09
 22.0281  2158.89
 22.0513  2157.79
 22.0746  2157.03
 22.0978  2155.36
 22.1211  2155.42
 22.1443  2155.54
 22.1676  2155.43
 22.1908  2154.5
 22.2141  2153.98
 22.2373  2154.65
 22.2606  2154.95
 22.2838  2156.16
 22.3071  2158.18
 22.3303  2160.99
 22.3536  2162.41
 22.3768  2163.94
 22.4001  2165.84
 22.4233  2169.14
 22.4466  2172.35
 22.4698  2173.77
 22.4931  2177.49
 22.5163  2182.79
 22.5396  2191.67
 22.5628  2199.52
 22.5861  2207.75
 22.6093  2224.4
 22.6326  2251.55
 22.6558  2278.2
 22.6791  2275.76
 22.7023  2248.1
 22.7256  2225.23
 22.7488  2208.96
 22.7721  2196.28
 22.7953  2188.27
 22.8185  2182.69
 22.8418  2178.98
 22.865  2176.82
 22.8883  2177.46
 22.9115  2176.11
 22.9348  2175.31
 22.958  2174.64
 22.9813  2175.02
 23.0045  2174.73
 23.0278  2175.32
 23.051  2175.06
 23.0743  2176.26
 23.0975  2175.92
 23.1208  2174.28
 23.144  2173.64
 23.1673  2171.82
 23.1905  2171.73
 23.2138  2172.08
 23.237  2171.59
 23.2603  2171.78
 23.2835  2173.14
 23.3068  2172.98
 23.33  2173.25
 23.3533  2174.75
 23.3765  2153.41
 23.3998  2068.68
 23.423  1954.82
 23.4463  1872.87
 23.4695  1815.67
 23.4928  1742.77
 23.516  1718.67
 23.5393  1721.93
 23.5625  1703.25
 23.5858  1681.03
 23.609  1651.02
 23.6323  1614.92
 23.6555  1583.24
 23.6787  1553.85
 23.702  1526.48
 23.7252  1500.11
 23.7485  1477.4
 23.7717  1456.35
 23.795  1441.52
 23.8182  1428.86
 23.8415  1434.4
 23.8647  1444.17
 23.888  1458.85
 23.9112  1469.3
 23.9345  1483.42
 23.9577  1494.91
 23.981  1507.9
 24.0042  1519.15
 24.0275  1531.69
 24.0507  1543.75
 24.074  1556.46
 24.0972  1565.67
 24.1205  1575.54
 24.1437  1588.01
 24.167  1596.91
 24.1902  1610.67
 24.2135  1623.63
 24.2367  1635.97
 24.26  1639.85
 24.2832  1653.01
 24.3065  1663.35
 24.3297  1678.64
 24.353  1689.33
 24.3762  1704.75
 24.3995  1714.06
 24.4227  1728.45
 24.446  1739.63
 24.4692  1749.8
 24.4925  1758.1
 24.5157  1769.42
 24.5389  1780.51
 24.5622  1792.15
 24.5854  1801.17
 24.6087  1798.16
 24.6319  1770.66
 24.6552  1723.25
 24.6784  1668.39
 24.7017  1605.67
 24.7249  1535.92
 24.7482  1466.97
 24.7714  1381.51
 24.7947  1306.94
 24.8179  1188.36
 24.8412  1060
 24.8644  1009.61
 24.8877  971.049
 24.9109  864.839
 24.9342  714.23
 24.9574  506.483
 24.9807  236.594
 25.0039  42.8344
 25.0272  0.55192
 25.0504  0.0000000E+00
 25.0737  0.0000000E+00
 25.0969  0.0000000E+00
 25.1202  0.0000000E+00
 25.1434  0.0000000E+00
 25.1667  0.0000000E+00
 25.1899  0.0000000E+00
 25.2132  0.0000000E+00
 25.2364  0.0000000E+00
 25.2597  0.0000000E+00
 25.2829  0.0000000E+00
 25.3062  0.0000000E+00
 25.3294  0.0000000E+00
 25.3527  0.0000000E+00
 25.3759  0.0000000E+00
 25.3991  0.0000000E+00
 25.4224  0.0000000E+00
 25.4456  0.0000000E+00
 25.4689  0.0000000E+00
 25.4921  0.0000000E+00
 25.5154  0.0000000E+00
 25.5386  0.0000000E+00
 25.5619  0.0000000E+00
 25.5851  0.0000000E+00
 25.6084  0.0000000E+00
 25.6316  0.0000000E+00
 25.6549  0.0000000E+00
 25.6781  0.0000000E+00
 25.7014  0.0000000E+00
 25.7246  0.0000000E+00
 25.7479  0.0000000E+00
 25.7711  0.0000000E+00
 25.7944  0.0000000E+00
 25.8176  0.0000000E+00
 25.8409  0.0000000E+00
 25.8641  0.0000000E+00
 25.8874  0.0000000E+00
 25.9106  0.0000000E+00
 25.9339  0.0000000E+00
 25.9571  0.0000000E+00
 25.9804  0.0000000E+00
 26.0036  0.0000000E+00
 26.0269  0.0000000E+00
 26.0501  0.0000000E+00
 26.0734  0.0000000E+00
 26.0966  0.0000000E+00
 26.1199  0.0000000E+00
 26.1431  0.0000000E+00
 26.1664  0.0000000E+00
 26.1896  0.0000000E+00
 26.2129  0.0000000E+00
 26.2361  0.0000000E+00
 26.2594  0.0000000E+00
 26.2826  0.0000000E+00
 26.3058  0.0000000E+00
 26.3291  0.0000000E+00
 26.3523  0.0000000E+00
 26.3756  0.0000000E+00
 26.3988  0.0000000E+00
 26.4221  0.0000000E+00
 26.4453  0.0000000E+00
 26.4686  0.0000000E+00
 26.4918  0.0000000E+00
 26.5151  0.0000000E+00
 26.5383  0.0000000E+00
 26.5616  0.0000000E+00
 26.5848  0.0000000E+00
 26.6081  0.0000000E+00
 26.6313  0.0000000E+00
 26.6546  0.0000000E+00
 26.6778  0.0000000E+00
 26.7011  0.0000000E+00
 26.7243  0.0000000E+00
 26.7476  0.0000000E+00
 26.7708  0.0000000E+00
 26.7941  0.0000000E+00
 26.8173  0.0000000E+00
 26.8406  0.0000000E+00
 26.8638  0.0000000E+00
 26.8871  0.0000000E+00
 26.9103  0.0000000E+00
 26.9336  0.0000000E+00
 26.9568  0.0000000E+00
 26.9801  0.0000000E+00
 27.0033  0.0000000E+00
 27.0266  0.0000000E+00
 27.0498  0.0000000E+00
 27.0731  0.0000000E+00