File: BA_4.chi
D:\DATA\UserData\CuiTian20190403\CWH\BA\BA_4.tif: 2-theta Scan
2-Theta Angle (Degrees)
Intensity
       1203
 0.0115668  37.2229
 0.0347005  38.3119
 0.0578342  39.6673
 0.0809679  40.1886
 0.104102  40.4068
 0.127235  39.5029
 0.150369  39.3058
 0.173503  38.769
 0.196636  37.1987
 0.21977  37.1672
 0.242904  37.0103
 0.266037  37.2158
 0.289171  36.9132
 0.312305  37.926
 0.335438  37.6905
 0.358572  37.6932
 0.381706  38.0534
 0.40484  36.7318
 0.427973  36.147
 0.451107  36.5182
 0.474241  36.5803
 0.497374  37.1063
 0.520508  37.016
 0.543642  36.2214
 0.566775  35.9032
 0.589909  36.7176
 0.613043  36.984
 0.636176  36.1426
 0.65931  35.9209
 0.682444  36.5366
 0.705577  37.1901
 0.728711  37.1127
 0.751845  36.9308
 0.774979  36.8464
 0.798112  37.1514
 0.821246  37.3955
 0.84438  37.0482
 0.867513  37.0045
 0.890647  37.2129
 0.913781  37.5998
 0.936914  37.7034
 0.960048  37.2395
 0.983182  36.8466
 1.00632  37.0139
 1.02945  37.3234
 1.05258  36.9286
 1.07572  36.8241
 1.09885  36.7753
 1.12198  36.5313
 1.14512  36.8611
 1.16825  37.1512
 1.19138  37.1793
 1.21452  37.4551
 1.23765  37.497
 1.26079  38.0323
 1.28392  38.345
 1.30705  38.5406
 1.33019  38.5197
 1.35332  38.3514
 1.37645  38.6934
 1.39959  39.2036
 1.42272  39.1913
 1.44586  38.5904
 1.46899  38.6038
 1.49212  38.8083
 1.51526  39.0068
 1.53839  39.2191
 1.56152  39.3771
 1.58466  39.3591
 1.60779  39.4331
 1.63092  39.513
 1.65406  40.0192
 1.67719  40.2636
 1.70033  40.5782
 1.72346  40.7369
 1.74659  40.8773
 1.76973  41.5449
 1.79286  42.2333
 1.81599  42.6821
 1.83913  43.3893
 1.86226  44.6676
 1.8854  47.8272
 1.90853  56.141
 1.93166  71.6439
 1.9548  93.7449
 1.97793  119.331
 2.00106  144.243
 2.0242  167.158
 2.04733  191.469
 2.07046  216.929
 2.0936  241.59
 2.11673  268.039
 2.13987  299.658
 2.163  333.802
 2.18613  367.79
 2.20927  403.127
 2.2324  431.657
 2.25553  455.266
 2.27867  479.161
 2.3018  501.723
 2.32494  521.005
 2.34807  540.093
 2.3712  559.518
 2.39434  578.653
 2.41747  596.945
 2.4406  615.609
 2.46374  633.476
 2.48687  650.828
 2.51001  668.573
 2.53314  686.502
 2.55627  701.897
 2.57941  717.957
 2.60254  733.878
 2.62567  745.879
 2.64881  759.502
 2.67194  774.042
 2.69507  786.742
 2.71821  800.96
 2.74134  816.117
 2.76448  831.25
 2.78761  843.084
 2.81074  855.018
 2.83388  867.128
 2.85701  878.16
 2.88014  889.985
 2.90328  902.906
 2.92641  914.593
 2.94955  925.741
 2.97268  936.684
 2.99581  946.214
 3.01895  955.565
 3.04208  965.98
 3.06521  975.986
 3.08835  985.397
 3.11148  995.023
 3.13461  1001.48
 3.15775  1011.51
 3.18088  1022.43
 3.20402  1031.64
 3.22715  1039.5
 3.25028  1046.94
 3.27342  1052.12
 3.29655  1057.22
 3.31968  1063.57
 3.34282  1072.72
 3.36595  1081.04
 3.38909  1085.17
 3.41222  1090.55
 3.43535  1095
 3.45849  1101.81
 3.48162  1111.39
 3.50475  1117.82
 3.52789  1124.73
 3.55102  1133.87
 3.57415  1139.4
 3.59729  1142.34
 3.62042  1146.51
 3.64356  1151.84
 3.66669  1156.16
 3.68982  1159.13
 3.71296  1164.91
 3.73609  1169.48
 3.75922  1173.94
 3.78236  1178.96
 3.80549  1183.61
 3.82863  1188.94
 3.85176  1192.24
 3.87489  1195.38
 3.89803  1198.26
 3.92116  1201.91
 3.94429  1206.31
 3.96743  1209.98
 3.99056  1212.45
 4.01369  1214.36
 4.03683  1217.91
 4.05996  1221.86
 4.0831  1226.62
 4.10623  1228.16
 4.12936  1228.96
 4.1525  1231.66
 4.17563  1234.9
 4.19876  1237.12
 4.2219  1240.18
 4.24503  1243.53
 4.26817  1245.74
 4.2913  1246.91
 4.31443  1247.84
 4.33757  1250.22
 4.3607  1252.64
 4.38383  1254.66
 4.40697  1255.52
 4.4301  1255.99
 4.45323  1258.51
 4.47637  1260.36
 4.4995  1263.02
 4.52264  1266.67
 4.54577  1268.11
 4.5689  1267.99
 4.59204  1271.18
 4.61517  1273.91
 4.6383  1272.65
 4.66144  1271.58
 4.68457  1273.46
 4.7077  1273.79
 4.73084  1272.37
 4.75397  1273.1
 4.77711  1273.53
 4.80024  1274
 4.82337  1276.32
 4.84651  1278.55
 4.86964  1279.29
 4.89277  1278.23
 4.91591  1279.39
 4.93904  1278.34
 4.96218  1278.2
 4.98531  1280.03
 5.00844  1279.9
 5.03158  1279.25
 5.05471  1279.93
 5.07784  1280.09
 5.10098  1279.04
 5.12411  1280.37
 5.14725  1282.6
 5.17038  1283.96
 5.19351  1283.87
 5.21665  1283.11
 5.23978  1282.53
 5.26291  1281.64
 5.28605  1280.26
 5.30918  1278.93
 5.33232  1279.47
 5.35545  1279.49
 5.37858  1279.05
 5.40172  1280.6
 5.42485  1283.67
 5.44798  1282.57
 5.47112  1280.35
 5.49425  1280.76
 5.51738  1280.86
 5.54052  1281.59
 5.56365  1281.94
 5.58679  1281.52
 5.60992  1281.1
 5.63305  1279.83
 5.65619  1279.27
 5.67932  1278.46
 5.70245  1277.98
 5.72559  1278
 5.74872  1278.8
 5.77185  1278.16
 5.79499  1276.52
 5.81812  1276.34
 5.84126  1276.35
 5.86439  1276.59
 5.88752  1277.04
 5.91066  1277
 5.93379  1276.47
 5.95692  1273.27
 5.98006  1272.28
 6.00319  1273.11
 6.02633  1272.29
 6.04946  1271.81
 6.07259  1271.9
 6.09573  1272.03
 6.11886  1273.12
 6.14199  1271.61
 6.16513  1269.96
 6.18826  1270.54
 6.21139  1272.34
 6.23453  1272.53
 6.25766  1269.84
 6.2808  1266.9
 6.30393  1266.47
 6.32706  1268.09
 6.3502  1269.01
 6.37333  1270.22
 6.39646  1269.08
 6.4196  1268.75
 6.44273  1268.41
 6.46587  1266.42
 6.489  1265.38
 6.51213  1268.41
 6.53527  1267.76
 6.5584  1265.13
 6.58153  1264.07
 6.60467  1264.06
 6.6278  1264.16
 6.65094  1264.14
 6.67407  1261.43
 6.6972  1260.52
 6.72034  1259.79
 6.74347  1257.74
 6.7666  1256.01
 6.78974  1256.24
 6.81287  1256.02
 6.836  1255.77
 6.85914  1254.9
 6.88227  1255.26
 6.90541  1255.28
 6.92854  1253.98
 6.95167  1252.64
 6.97481  1251.76
 6.99794  1251.23
 7.02107  1251.68
 7.04421  1251.78
 7.06734  1252.3
 7.09048  1251.65
 7.11361  1249.92
 7.13674  1250.93
 7.15988  1249.88
 7.18301  1247.79
 7.20614  1247.07
 7.22928  1247.41
 7.25241  1247.25
 7.27554  1246.82
 7.29868  1247.27
 7.32181  1247.77
 7.34495  1246.57
 7.36808  1244.7
 7.39121  1242.82
 7.41435  1244.06
 7.43748  1244.42
 7.46061  1243.59
 7.48375  1242.78
 7.50688  1242.84
 7.53001  1242.46
 7.55315  1241.08
 7.57628  1240.99
 7.59942  1241.59
 7.62255  1240.35
 7.64568  1239.76
 7.66882  1240.79
 7.69195  1240.8
 7.71508  1239.54
 7.73822  1238.79
 7.76135  1239.87
 7.78449  1240
 7.80762  1238.85
 7.83075  1237.77
 7.85389  1236.81
 7.87702  1237.19
 7.90015  1236.69
 7.92329  1236.18
 7.94642  1236.54
 7.96955  1236.92
 7.99269  1236.67
 8.01582  1235.74
 8.03896  1234.7
 8.06209  1234.26
 8.08522  1234.84
 8.10836  1236.29
 8.13149  1236.58
 8.15462  1235.32
 8.17776  1232.49
 8.20089  1233.47
 8.22403  1233.3
 8.24716  1232.7
 8.27029  1234.31
 8.29343  1233.7
 8.31656  1232.62
 8.33969  1231.76
 8.36283  1232.34
 8.38596  1232.24
 8.40909  1232.15
 8.43223  1233.09
 8.45536  1232.96
 8.4785  1233.68
 8.50163  1233.41
 8.52476  1233.39
 8.5479  1233.89
 8.57103  1234.85
 8.59416  1235.04
 8.6173  1235.04
 8.64043  1235.61
 8.66357  1237.95
 8.6867  1240.37
 8.70983  1241.47
 8.73297  1242.11
 8.7561  1245.95
 8.77923  1252.27
 8.80237  1256.91
 8.8255  1263.61
 8.84863  1272.06
 8.87177  1277.21
 8.8949  1275.81
 8.91804  1270.38
 8.94117  1263.48
 8.9643  1256.75
 8.98744  1251.37
 9.01057  1248.5
 9.0337  1247.62
 9.05684  1247.31
 9.07997  1245.25
 9.10311  1243.03
 9.12624  1241.89
 9.14937  1241.23
 9.17251  1242.59
 9.19564  1243.97
 9.21877  1247.57
 9.24191  1251.39
 9.26504  1249.42
 9.28818  1246.86
 9.31131  1243.74
 9.33444  1240.44
 9.35758  1239.85
 9.38071  1240.83
 9.40384  1239.43
 9.42698  1237.72
 9.45011  1236.33
 9.47324  1236.84
 9.49638  1237.51
 9.51951  1236.8
 9.54265  1238.42
 9.56578  1259.66
 9.58891  1301.39
 9.61205  1341.78
 9.63518  1361.28
 9.65831  1342.48
 9.68145  1288.32
 9.70458  1238.99
 9.72772  1235.85
 9.75085  1235.93
 9.77398  1236.34
 9.79712  1236.66
 9.82025  1237.2
 9.84338  1237.85
 9.86652  1238.59
 9.88965  1240.3
 9.91278  1241.64
 9.93592  1243.41
 9.95905  1245.42
 9.98219  1246.78
 10.0053  1249.78
 10.0285  1252.78
 10.0516  1254.42
 10.0747  1255.19
 10.0979  1256.67
 10.121  1259.91
 10.1441  1263.16
 10.1673  1263.27
 10.1904  1262.04
 10.2135  1262.08
 10.2367  1262.46
 10.2598  1263.91
 10.2829  1264.4
 10.3061  1263.87
 10.3292  1260.59
 10.3523  1255.68
 10.3755  1251.39
 10.3986  1248.08
 10.4217  1247.82
 10.4449  1247.2
 10.468  1247.04
 10.4911  1248.45
 10.5143  1248.78
 10.5374  1247.49
 10.5605  1248.43
 10.5837  1249.53
 10.6068  1251.46
 10.6299  1258.31
 10.6531  1275.09
 10.6762  1292.83
 10.6993  1285.66
 10.7225  1282.41
 10.7456  1294.33
 10.7687  1300.75
 10.7919  1288.07
 10.815  1274.4
 10.8381  1267.51
 10.8613  1261.98
 10.8844  1260.2
 10.9075  1260.3
 10.9307  1261.23
 10.9538  1262.23
 10.9769  1263.51
 11.0001  1265.47
 11.0232  1267.49
 11.0463  1270.57
 11.0695  1275.1
 11.0926  1281.55
 11.1157  1289.39
 11.1389  1300.95
 11.162  1323.16
 11.1851  1364.2
 11.2083  1440.47
 11.2314  1566.63
 11.2545  1673.38
 11.2777  1720.9
 11.3008  1676.65
 11.3239  1574.01
 11.3471  1473.08
 11.3702  1400.93
 11.3933  1356.11
 11.4165  1330.6
 11.4396  1315.24
 11.4627  1303.95
 11.4859  1295.55
 11.509  1289.66
 11.5321  1284.64
 11.5553  1281.67
 11.5784  1278.17
 11.6015  1281.36
 11.6247  1293.92
 11.6478  1297.73
 11.6709  1299.23
 11.6941  1301.07
 11.7172  1303.04
 11.7403  1307.6
 11.7635  1314.05
 11.7866  1323.39
 11.8097  1336.31
 11.8329  1347.49
 11.856  1357.11
 11.8791  1366.84
 11.9023  1370.62
 11.9254  1368.79
 11.9485  1361.96
 11.9717  1350.56
 11.9948  1340.18
 12.018  1331.32
 12.0411  1324.08
 12.0642  1321.74
 12.0874  1319.39
 12.1105  1316.01
 12.1336  1315.02
 12.1568  1313.74
 12.1799  1313.61
 12.203  1313.77
 12.2262  1314.51
 12.2493  1314.94
 12.2724  1315.55
 12.2956  1317.08
 12.3187  1318.73
 12.3418  1319.94
 12.365  1322.16
 12.3881  1325.05
 12.4112  1325.55
 12.4344  1328.65
 12.4575  1333.06
 12.4806  1339.17
 12.5038  1345.74
 12.5269  1352.87
 12.55  1360.25
 12.5732  1370.71
 12.5963  1382.44
 12.6194  1388.23
 12.6426  1383.03
 12.6657  1375.11
 12.6888  1370.54
 12.712  1368.51
 12.7351  1368.48
 12.7582  1370.13
 12.7814  1371.64
 12.8045  1373.78
 12.8276  1377.94
 12.8508  1382.01
 12.8739  1388.12
 12.897  1400.62
 12.9202  1423.57
 12.9433  1458.67
 12.9664  1501.08
 12.9896  1537.64
 13.0127  1575.67
 13.0358  1633.95
 13.059  1684.52
 13.0821  1698.38
 13.1052  1671.3
 13.1284  1618.44
 13.1515  1506.12
 13.1746  1419.16
 13.1978  1392.6
 13.2209  1383.42
 13.244  1375.7
 13.2672  1369.78
 13.2903  1365.87
 13.3134  1363.39
 13.3366  1363.54
 13.3597  1362.78
 13.3828  1360.44
 13.406  1361.63
 13.4291  1363.13
 13.4522  1364.37
 13.4754  1365.48
 13.4985  1365.83
 13.5216  1367.5
 13.5448  1367.44
 13.5679  1366.2
 13.591  1366.08
 13.6142  1366.17
 13.6373  1365.61
 13.6604  1364.31
 13.6836  1364.19
 13.7067  1365.29
 13.7298  1364.42
 13.753  1363.05
 13.7761  1363.52
 13.7992  1363.92
 13.8224  1364.02
 13.8455  1364.92
 13.8686  1365.91
 13.8918  1366.82
 13.9149  1367.1
 13.938  1368.76
 13.9612  1371.47
 13.9843  1371.44
 14.0074  1372.19
 14.0306  1374.15
 14.0537  1376.04
 14.0768  1378.12
 14.1  1379.61
 14.1231  1381.74
 14.1463  1384.78
 14.1694  1386.02
 14.1925  1386.02
 14.2157  1387.05
 14.2388  1388.38
 14.2619  1389.26
 14.2851  1389.76
 14.3082  1388.53
 14.3313  1388.86
 14.3545  1388.95
 14.3776  1388.74
 14.4007  1388.92
 14.4239  1390.26
 14.447  1399.43
 14.4701  1410.95
 14.4933  1422.33
 14.5164  1430.74
 14.5395  1435.28
 14.5627  1439.91
 14.5858  1442.76
 14.6089  1441.41
 14.6321  1440.81
 14.6552  1440.9
 14.6783  1440.03
 14.7015  1441.72
 14.7246  1442.92
 14.7477  1443.99
 14.7709  1446.79
 14.794  1449.22
 14.8171  1451.85
 14.8403  1453.87
 14.8634  1455.05
 14.8865  1456.24
 14.9097  1458.39
 14.9328  1462.06
 14.9559  1464.58
 14.9791  1466.23
 15.0022  1468.95
 15.0253  1471.36
 15.0485  1475.43
 15.0716  1478.25
 15.0947  1478.5
 15.1179  1481.19
 15.141  1482.95
 15.1641  1485.96
 15.1873  1489.19
 15.2104  1492.13
 15.2335  1494.6
 15.2567  1496.91
 15.2798  1499
 15.3029  1501.15
 15.3261  1502.18
 15.3492  1505.71
 15.3723  1508.65
 15.3955  1511.33
 15.4186  1513.35
 15.4417  1514.7
 15.4649  1515.43
 15.488  1519.03
 15.5111  1522.2
 15.5343  1525.52
 15.5574  1526.41
 15.5805  1531.01
 15.6037  1535.67
 15.6268  1538.78
 15.6499  1542.8
 15.6731  1545.85
 15.6962  1548.4
 15.7193  1551.99
 15.7425  1555.17
 15.7656  1558.46
 15.7887  1560.39
 15.8119  1561.88
 15.835  1564.82
 15.8581  1566.4
 15.8813  1568.61
 15.9044  1571.36
 15.9275  1572.81
 15.9507  1577.64
 15.9738  1581.16
 15.9969  1584.34
 16.0201  1585.32
 16.0432  1587.34
 16.0663  1592.69
 16.0895  1597.38
 16.1126  1606.07
 16.1357  1611.56
 16.1589  1614.2
 16.182  1615.23
 16.2051  1610.84
 16.2283  1609.28
 16.2514  1606.63
 16.2745  1604.55
 16.2977  1604.11
 16.3208  1602.16
 16.3439  1603.19
 16.3671  1604.45
 16.3902  1605.94
 16.4134  1607.58
 16.4365  1606.97
 16.4596  1609.68
 16.4828  1612.86
 16.5059  1616.8
 16.529  1618.07
 16.5522  1618.58
 16.5753  1621.77
 16.5984  1622.59
 16.6216  1624.68
 16.6447  1625.16
 16.6678  1629.1
 16.691  1631.29
 16.7141  1631.98
 16.7372  1635.87
 16.7604  1638.19
 16.7835  1642.54
 16.8066  1644.12
 16.8298  1644.06
 16.8529  1646.22
 16.876  1647.01
 16.8992  1650.75
 16.9223  1654.15
 16.9454  1658.04
 16.9686  1659.11
 16.9917  1660.48
 17.0148  1664.26
 17.038  1665.65
 17.0611  1667.88
 17.0842  1670.31
 17.1074  1672.94
 17.1305  1675.23
 17.1536  1677.05
 17.1768  1682.07
 17.1999  1685.02
 17.223  1687.17
 17.2462  1689.17
 17.2693  1691.76
 17.2924  1696.15
 17.3156  1698.41
 17.3387  1700.8
 17.3618  1705.43
 17.385  1711.39
 17.4081  1714.79
 17.4312  1717.78
 17.4544  1723.76
 17.4775  1728.83
 17.5006  1738.08
 17.5238  1748.04
 17.5469  1760.41
 17.57  1774.34
 17.5932  1787.36
 17.6163  1799.95
 17.6394  1808.26
 17.6626  1813.09
 17.6857  1814.18
 17.7088  1813.59
 17.732  1811.2
 17.7551  1809.49
 17.7782  1808.56
 17.8014  1807.36
 17.8245  1805.82
 17.8476  1805.04
 17.8708  1806.73
 17.8939  1806.82
 17.917  1806.5
 17.9402  1806.05
 17.9633  1806.72
 17.9864  1803.24
 18.0096  1800.35
 18.0327  1799.55
 18.0558  1799.74
 18.079  1800.93
 18.1021  1800.98
 18.1252  1804.1
 18.1484  1803.8
 18.1715  1807.76
 18.1946  1811.17
 18.2178  1815.2
 18.2409  1822.03
 18.264  1824.86
 18.2872  1831.11
 18.3103  1839.88
 18.3334  1859.77
 18.3566  1885.3
 18.3797  1925.71
 18.4028  1977.42
 18.426  2023.46
 18.4491  2070.14
 18.4722  2103.39
 18.4954  2101.9
 18.5185  2039.24
 18.5417  1962.52
 18.5648  1908.38
 18.5879  1883.23
 18.6111  1869.77
 18.6342  1858.04
 18.6573  1852.4
 18.6805  1845.06
 18.7036  1842.84
 18.7267  1839.39
 18.7499  1838.79
 18.773  1834.83
 18.7961  1834.45
 18.8193  1836.69
 18.8424  1837.28
 18.8655  1840.41
 18.8887  1839.16
 18.9118  1843.52
 18.9349  1842.37
 18.9581  1844.21
 18.9812  1841.85
 19.0043  1844.35
 19.0275  1845.5
 19.0506  1844.79
 19.0737  1843.44
 19.0969  1841.73
 19.12  1846.46
 19.1431  1846.45
 19.1663  1848.97
 19.1894  1845.95
 19.2125  1851.46
 19.2357  1852.45
 19.2588  1852.92
 19.2819  1855.33
 19.3051  1856.16
 19.3282  1856.71
 19.3513  1857.41
 19.3745  1862.08
 19.3976  1860.52
 19.4207  1863.74
 19.4439  1865.7
 19.467  1868.4
 19.4901  1868.48
 19.5133  1871.99
 19.5364  1874.87
 19.5595  1877.07
 19.5827  1880.13
 19.6058  1878.54
 19.6289  1883.74
 19.6521  1884.16
 19.6752  1886.48
 19.6983  1884.93
 19.7215  1888.2
 19.7446  1888.36
 19.7677  1891.63
 19.7909  1893.36
 19.814  1896.35
 19.8371  1899.45
 19.8603  1901.56
 19.8834  1902.32
 19.9065  1904.22
 19.9297  1906.43
 19.9528  1907.1
 19.9759  1909.04
 19.9991  1910.7
 20.0222  1912.13
 20.0453  1913.2
 20.0685  1915.05
 20.0916  1917.29
 20.1147  1916.97
 20.1379  1917.05
 20.161  1919.76
 20.1841  1920.19
 20.2073  1919
 20.2304  1921.42
 20.2535  1924.32
 20.2767  1925.82
 20.2998  1926.27
 20.3229  1926.85
 20.3461  1928.22
 20.3692  1930.45
 20.3923  1932.41
 20.4155  1934.87
 20.4386  1936.25
 20.4617  1939.1
 20.4849  1940.53
 20.508  1942.45
 20.5311  1947.01
 20.5543  1952.19
 20.5774  1954.29
 20.6005  1954.31
 20.6237  1954.51
 20.6468  1954.47
 20.6699  1955.1
 20.6931  1955.31
 20.7162  1956.33
 20.7393  1958.61
 20.7625  1960.42
 20.7856  1960.07
 20.8088  1959.5
 20.8319  1960.6
 20.855  1961.72
 20.8782  1962.92
 20.9013  1963.01
 20.9244  1963.58
 20.9476  1967.16
 20.9707  1968.96
 20.9938  1970.44
 21.017  1973.59
 21.0401  1976.54
 21.0632  1980.81
 21.0864  1982.93
 21.1095  1984.77
 21.1326  1985.03
 21.1558  1986.42
 21.1789  1988.4
 21.202  1990.87
 21.2252  1993.67
 21.2483  1994.91
 21.2714  1995.46
 21.2946  1998.32
 21.3177  2001.29
 21.3408  2004.92
 21.364  2012.69
 21.3871  2018.55
 21.4102  2024.34
 21.4334  2032.67
 21.4565  2040.54
 21.4796  2047.52
 21.5028  2057.41
 21.5259  2069.65
 21.549  2088.89
 21.5722  2112.2
 21.5953  2125.94
 21.6184  2135.7
 21.6416  2150.04
 21.6647  2165.44
 21.6878  2172.36
 21.711  2173.78
 21.7341  2165.96
 21.7572  2147.37
 21.7804  2128.56
 21.8035  2111.02
 21.8266  2097.06
 21.8498  2081.9
 21.8729  2067.17
 21.896  2053.81
 21.9192  2045.77
 21.9423  2040.15
 21.9654  2036.92
 21.9886  2034.7
 22.0117  2033.06
 22.0348  2032.84
 22.058  2031.56
 22.0811  2030.6
 22.1042  2031.37
 22.1274  2031.98
 22.1505  2033.75
 22.1736  2035.61
 22.1968  2036.17
 22.2199  2035.62
 22.243  2034.91
 22.2662  2035.12
 22.2893  2037.52
 22.3124  2040.62
 22.3356  2042.36
 22.3587  2044.19
 22.3818  2046.81
 22.405  2046.26
 22.4281  2047.06
 22.4512  2049.9
 22.4744  2052.89
 22.4975  2056.26
 22.5206  2060.02
 22.5438  2066.22
 22.5669  2074.76
 22.59  2086.66
 22.6132  2094.51
 22.6363  2091.78
 22.6594  2085.19
 22.6826  2077.01
 22.7057  2070
 22.7288  2066.62
 22.752  2063.79
 22.7751  2059.82
 22.7982  2056.46
 22.8214  2057.41
 22.8445  2055.58
 22.8676  2055.11
 22.8908  2054.56
 22.9139  2055.22
 22.937  2057.41
 22.9602  2057.75
 22.9833  2058.65
 23.0065  2056.36
 23.0296  2056.54
 23.0527  2056.32
 23.0759  2056.62
 23.099  2055.36
 23.1221  2056.83
 23.1453  2057.42
 23.1684  2056.41
 23.1915  2055.3
 23.2147  2055.54
 23.2378  2056.97
 23.2609  2058.02
 23.2841  2057.2
 23.3072  2057.61
 23.3303  2058.94
 23.3535  2056.52
 23.3766  2018.19
 23.3997  1927.13
 23.4229  1827.67
 23.446  1755.95
 23.4691  1706.34
 23.4923  1642.34
 23.5154  1579.41
 23.5385  1587.15
 23.5617  1576.82
 23.5848  1555.73
 23.6079  1530.06
 23.6311  1507.37
 23.6542  1483.8
 23.6773  1462.94
 23.7005  1440.53
 23.7236  1423.18
 23.7467  1403.26
 23.7699  1388.51
 23.793  1374.84
 23.8161  1360.94
 23.8393  1345.54
 23.8624  1333.42
 23.8855  1325.42
 23.9087  1329.66
 23.9318  1336.36
 23.9549  1345.7
 23.9781  1353.71
 24.0012  1363.41
 24.0243  1373.3
 24.0475  1383.47
 24.0706  1390.46
 24.0937  1398.94
 24.1169  1406.48
 24.14  1414.78
 24.1631  1423.64
 24.1863  1431.49
 24.2094  1439.45
 24.2325  1446.5
 24.2557  1455.84
 24.2788  1462.16
 24.3019  1474.13
 24.3251  1480.65
 24.3482  1492.92
 24.3713  1497.22
 24.3945  1509.92
 24.4176  1516.57
 24.4407  1526.78
 24.4639  1529.42
 24.487  1541.68
 24.5101  1545.95
 24.5333  1558.07
 24.5564  1562.39
 24.5795  1555.21
 24.6027  1526.77
 24.6258  1492.48
 24.6489  1450.17
 24.6721  1408.62
 24.6952  1357.73
 24.7183  1308.84
 24.7415  1254.81
 24.7646  1188.35
 24.7877  1134.16
 24.8109  1045.93
 24.834  947.718
 24.8571  875.409
 24.8803  851.854
 24.9034  784.52
 24.9265  678.824
 24.9497  537.727
 24.9728  351.424
 24.9959  125.969
 25.0191  9.96399
 25.0422  0.0000000E+00
 25.0653  0.0000000E+00
 25.0885  0.0000000E+00
 25.1116  0.0000000E+00
 25.1348  0.0000000E+00
 25.1579  0.0000000E+00
 25.181  0.0000000E+00
 25.2042  0.0000000E+00
 25.2273  0.0000000E+00
 25.2504  0.0000000E+00
 25.2736  0.0000000E+00
 25.2967  0.0000000E+00
 25.3198  0.0000000E+00
 25.343  0.0000000E+00
 25.3661  0.0000000E+00
 25.3892  0.0000000E+00
 25.4124  0.0000000E+00
 25.4355  0.0000000E+00
 25.4586  0.0000000E+00
 25.4818  0.0000000E+00
 25.5049  0.0000000E+00
 25.528  0.0000000E+00
 25.5512  0.0000000E+00
 25.5743  0.0000000E+00
 25.5974  0.0000000E+00
 25.6206  0.0000000E+00
 25.6437  0.0000000E+00
 25.6668  0.0000000E+00
 25.69  0.0000000E+00
 25.7131  0.0000000E+00
 25.7362  0.0000000E+00
 25.7594  0.0000000E+00
 25.7825  0.0000000E+00
 25.8056  0.0000000E+00
 25.8288  0.0000000E+00
 25.8519  0.0000000E+00
 25.875  0.0000000E+00
 25.8982  0.0000000E+00
 25.9213  0.0000000E+00
 25.9444  0.0000000E+00
 25.9676  0.0000000E+00
 25.9907  0.0000000E+00
 26.0138  0.0000000E+00
 26.037  0.0000000E+00
 26.0601  0.0000000E+00
 26.0832  0.0000000E+00
 26.1064  0.0000000E+00
 26.1295  0.0000000E+00
 26.1526  0.0000000E+00
 26.1758  0.0000000E+00
 26.1989  0.0000000E+00
 26.222  0.0000000E+00
 26.2452  0.0000000E+00
 26.2683  0.0000000E+00
 26.2914  0.0000000E+00
 26.3146  0.0000000E+00
 26.3377  0.0000000E+00
 26.3608  0.0000000E+00
 26.384  0.0000000E+00
 26.4071  0.0000000E+00
 26.4302  0.0000000E+00
 26.4534  0.0000000E+00
 26.4765  0.0000000E+00
 26.4996  0.0000000E+00
 26.5228  0.0000000E+00
 26.5459  0.0000000E+00
 26.569  0.0000000E+00
 26.5922  0.0000000E+00
 26.6153  0.0000000E+00
 26.6384  0.0000000E+00
 26.6616  0.0000000E+00
 26.6847  0.0000000E+00
 26.7078  0.0000000E+00
 26.731  0.0000000E+00
 26.7541  0.0000000E+00
 26.7772  0.0000000E+00
 26.8004  0.0000000E+00
 26.8235  0.0000000E+00
 26.8466  0.0000000E+00
 26.8698  0.0000000E+00
 26.8929  0.0000000E+00
 26.916  0.0000000E+00
 26.9392  0.0000000E+00
 26.9623  0.0000000E+00
 26.9854  0.0000000E+00
 27.0086  0.0000000E+00
 27.0317  0.0000000E+00
 27.0548  0.0000000E+00
 27.078  0.0000000E+00
 27.1011  0.0000000E+00
 27.1242  0.0000000E+00
 27.1474  0.0000000E+00
 27.1705  0.0000000E+00
 27.1936  0.0000000E+00
 27.2168  0.0000000E+00
 27.2399  0.0000000E+00
 27.263  0.0000000E+00
 27.2862  0.0000000E+00
 27.3093  0.0000000E+00
 27.3325  0.0000000E+00
 27.3556  0.0000000E+00
 27.3787  0.0000000E+00
 27.4019  0.0000000E+00
 27.425  0.0000000E+00
 27.4481  0.0000000E+00
 27.4713  0.0000000E+00
 27.4944  0.0000000E+00
 27.5175  0.0000000E+00
 27.5407  0.0000000E+00
 27.5638  0.0000000E+00
 27.5869  0.0000000E+00
 27.6101  0.0000000E+00
 27.6332  0.0000000E+00
 27.6563  0.0000000E+00
 27.6795  0.0000000E+00
 27.7026  0.0000000E+00
 27.7257  0.0000000E+00
 27.7489  0.0000000E+00
 27.772  0.0000000E+00
 27.7951  0.0000000E+00
 27.8183  0.0000000E+00