File: BA_7.chi
D:\DATA\UserData\CuiTian20190403\\CWH\BA\BA_7.tif: 2-theta Scan
2-Theta Angle (Degrees)
Intensity
       1481
 0.011054  45.7617
 0.0331621  43.9397
 0.0552701  43.1119
 0.0773782  42.1332
 0.0994862  42.0204
 0.121594  42.4003
 0.143702  41.2518
 0.16581  41.3958
 0.187918  42.9919
 0.210026  43.3556
 0.232135  42.446
 0.254243  40.8498
 0.276351  40.5159
 0.298459  41.6151
 0.320567  41.6266
 0.342675  42.1151
 0.364783  41.7649
 0.386891  41.368
 0.408999  41.492
 0.431107  41.5955
 0.453215  42.2213
 0.475323  42.6098
 0.497431  42.5409
 0.519539  42.8019
 0.541647  42.6758
 0.563755  41.698
 0.585863  42.2508
 0.607971  42.7655
 0.630079  43.0548
 0.652188  43.5078
 0.674296  43.6631
 0.696404  43.3926
 0.718512  42.4579
 0.74062  41.8099
 0.762728  42.129
 0.784836  42.7485
 0.806944  43.3611
 0.829052  43.9227
 0.85116  44.177
 0.873268  43.8774
 0.895376  43.5579
 0.917484  43.6351
 0.939592  44.162
 0.9617  43.9043
 0.983808  44.3354
 1.00592  44.8854
 1.02802  45.1062
 1.05013  45.0752
 1.07224  44.6732
 1.09435  44.2879
 1.11646  43.5581
 1.13856  43.5079
 1.16067  44.3154
 1.18278  44.6447
 1.20489  44.4495
 1.227  44.44
 1.2491  44.95
 1.27121  45.0929
 1.29332  45.1086
 1.31543  45.0764
 1.33754  44.9028
 1.35965  45.2217
 1.38175  45.8377
 1.40386  45.9048
 1.42597  46.0714
 1.44808  46.3524
 1.47019  46.2694
 1.49229  46.5179
 1.5144  46.9431
 1.53651  47.3671
 1.55862  47.8349
 1.58073  48.4583
 1.60283  48.8495
 1.62494  48.9391
 1.64705  48.6898
 1.66916  49.3173
 1.69127  50.051
 1.71337  50.0464
 1.73548  50.491
 1.75759  51.6762
 1.7797  53.0859
 1.80181  54.4466
 1.82391  56.0131
 1.84602  59.1088
 1.86813  65.0273
 1.89024  78.5979
 1.91235  104.957
 1.93445  143.741
 1.95656  188.684
 1.97867  234.377
 2.00078  276.395
 2.02289  316.412
 2.04499  358.172
 2.0671  398.538
 2.08921  444.263
 2.11132  497.321
 2.13343  559.75
 2.15553  629.069
 2.17764  699.897
 2.19975  758.608
 2.22186  797.409
 2.24397  830.917
 2.26608  864.244
 2.28818  900.109
 2.31029  933.306
 2.3324  965.581
 2.35451  997.417
 2.37662  1028.94
 2.39872  1061.74
 2.42083  1094.31
 2.44294  1128.04
 2.46505  1156.05
 2.48716  1183.76
 2.50926  1212.41
 2.53137  1242
 2.55348  1268.38
 2.57559  1294.6
 2.5977  1321.24
 2.6198  1348.79
 2.64191  1372.17
 2.66402  1393.71
 2.68613  1418.42
 2.70824  1442.07
 2.73034  1464.89
 2.75245  1485.54
 2.77456  1504.95
 2.79667  1527.56
 2.81878  1549.65
 2.84088  1568.14
 2.86299  1589.01
 2.8851  1609.6
 2.90721  1630.71
 2.92932  1648.37
 2.95142  1665.24
 2.97353  1681.78
 2.99564  1697.93
 3.01775  1717.11
 3.03986  1734.79
 3.06196  1748.04
 3.08407  1761.65
 3.10618  1777.87
 3.12829  1791.8
 3.1504  1803.68
 3.17251  1817.2
 3.19461  1831.05
 3.21672  1845.18
 3.23883  1860.82
 3.26094  1873.81
 3.28305  1883.41
 3.30515  1894.79
 3.32726  1902.21
 3.34937  1915.29
 3.37148  1928.28
 3.39359  1939.34
 3.41569  1949.05
 3.4378  1959.11
 3.45991  1968.89
 3.48202  1979.03
 3.50413  1989.8
 3.52623  2000.37
 3.54834  2013.32
 3.57045  2022.43
 3.59256  2028.92
 3.61467  2039.31
 3.63677  2049.96
 3.65888  2058.52
 3.68099  2064.02
 3.7031  2072.32
 3.72521  2078.89
 3.74731  2085.05
 3.76942  2094.24
 3.79153  2100.26
 3.81364  2106.57
 3.83575  2114.24
 3.85785  2118.63
 3.87996  2124.55
 3.90207  2132.36
 3.92418  2139.06
 3.94629  2145.43
 3.9684  2152.69
 3.9905  2156.08
 4.01261  2160.19
 4.03472  2165.04
 4.05683  2170.23
 4.07894  2177.26
 4.10104  2180.9
 4.12315  2184.39
 4.14526  2187.94
 4.16737  2191.79
 4.18948  2195.14
 4.21158  2198.58
 4.23369  2204.3
 4.2558  2206.4
 4.27791  2209.46
 4.30002  2212.78
 4.32212  2217.41
 4.34423  2225.73
 4.36634  2228.31
 4.38845  2228.9
 4.41056  2233.59
 4.43266  2236.46
 4.45477  2236.91
 4.47688  2238.2
 4.49899  2243.97
 4.5211  2247.5
 4.5432  2249.25
 4.56531  2251.59
 4.58742  2252.35
 4.60953  2253.28
 4.63164  2255.22
 4.65374  2256.04
 4.67585  2256.29
 4.69796  2256.61
 4.72007  2260.12
 4.74218  2264.54
 4.76429  2267.74
 4.78639  2261.79
 4.8085  2260.8
 4.83061  2264.27
 4.85272  2265.13
 4.87483  2267.3
 4.89693  2266.17
 4.91904  2267.47
 4.94115  2269.55
 4.96326  2270.48
 4.98537  2271.34
 5.00747  2268.93
 5.02958  2270.19
 5.05169  2270.27
 5.0738  2268.91
 5.09591  2270.05
 5.11801  2271.76
 5.14012  2272.76
 5.16223  2272.06
 5.18434  2272.77
 5.20645  2273.7
 5.22855  2273.66
 5.25066  2271.02
 5.27277  2268.48
 5.29488  2268.58
 5.31699  2268.19
 5.33909  2267.76
 5.3612  2268.27
 5.38331  2271.08
 5.40542  2272.87
 5.42753  2271.37
 5.44963  2269.96
 5.47174  2270.93
 5.49385  2272.07
 5.51596  2270.32
 5.53807  2268.81
 5.56017  2269.41
 5.58228  2269.71
 5.60439  2268.34
 5.6265  2269.36
 5.64861  2267.68
 5.67072  2265.29
 5.69282  2267.2
 5.71493  2268.08
 5.73704  2267.14
 5.75915  2266.22
 5.78126  2265.13
 5.80336  2264.69
 5.82547  2263.09
 5.84758  2263.02
 5.86969  2262.11
 5.8918  2261.72
 5.9139  2259.29
 5.93601  2256.31
 5.95812  2256.03
 5.98023  2255.91
 6.00234  2254.51
 6.02444  2255.6
 6.04655  2257.91
 6.06866  2257.23
 6.09077  2255.43
 6.11288  2253.07
 6.13498  2254.43
 6.15709  2254.78
 6.1792  2253.31
 6.20131  2251.23
 6.22342  2248.16
 6.24552  2247.41
 6.26763  2248.91
 6.28974  2251.47
 6.31185  2249.86
 6.33396  2246.89
 6.35606  2248.73
 6.37817  2248.99
 6.40028  2249.8
 6.42239  2253.67
 6.4445  2254.27
 6.4666  2252.05
 6.48871  2246.31
 6.51082  2244.63
 6.53293  2242.14
 6.55504  2241.46
 6.57715  2240.97
 6.59925  2238.95
 6.62136  2237.91
 6.64347  2237.22
 6.66558  2236.04
 6.68769  2237.16
 6.70979  2237.03
 6.7319  2234.72
 6.75401  2232.01
 6.77612  2231.46
 6.79823  2233.62
 6.82033  2231.59
 6.84244  2229.34
 6.86455  2228.83
 6.88666  2228.27
 6.90877  2226.67
 6.93087  2227.59
 6.95298  2230.66
 6.97509  2231.13
 6.9972  2229.08
 7.01931  2227.67
 7.04141  2227.39
 7.06352  2224.08
 7.08563  2224.19
 7.10774  2225.64
 7.12985  2222.47
 7.15195  2218.95
 7.17406  2220.04
 7.19617  2221.29
 7.21828  2220.36
 7.24039  2217.8
 7.26249  2216.75
 7.2846  2217.37
 7.30671  2217.31
 7.32882  2215.94
 7.35093  2213.85
 7.37303  2213.05
 7.39514  2212.97
 7.41725  2213.3
 7.43936  2213.5
 7.46147  2211.25
 7.48358  2209.04
 7.50568  2207.46
 7.52779  2207.59
 7.5499  2207.41
 7.57201  2207.68
 7.59412  2210.31
 7.61622  2208.41
 7.63833  2206.02
 7.66044  2207.17
 7.68255  2206.38
 7.70466  2205.76
 7.72676  2204.71
 7.74887  2204.14
 7.77098  2203.69
 7.79309  2202.8
 7.8152  2202.31
 7.8373  2201.23
 7.85941  2201.93
 7.88152  2201.57
 7.90363  2200.81
 7.92574  2200.4
 7.94784  2199.07
 7.96995  2197.39
 7.99206  2196.41
 8.01417  2196.43
 8.03628  2195.21
 8.05838  2195.03
 8.08049  2194.53
 8.1026  2195.46
 8.12471  2196.08
 8.14682  2194.12
 8.16893  2193.11
 8.19103  2192.97
 8.21314  2193.24
 8.23525  2193.05
 8.25736  2192.47
 8.27946  2191.78
 8.30157  2193.63
 8.32368  2193.96
 8.34579  2194.88
 8.3679  2195.84
 8.39001  2197.63
 8.41211  2198.24
 8.43422  2195.43
 8.45633  2193.36
 8.47844  2194.72
 8.50055  2196.22
 8.52265  2197
 8.54476  2195.97
 8.56687  2198.01
 8.58898  2202.12
 8.61109  2205.93
 8.63319  2212.02
 8.6553  2220.86
 8.67741  2231.33
 8.69952  2245.21
 8.72163  2258.43
 8.74373  2266.58
 8.76584  2261.54
 8.78795  2249.18
 8.81006  2235.07
 8.83217  2223.35
 8.85427  2214.8
 8.87638  2211.54
 8.89849  2207.82
 8.9206  2203.76
 8.94271  2202.12
 8.96482  2201.97
 8.98692  2203.9
 9.00903  2208.25
 9.03114  2214.95
 9.05325  2228.55
 9.07535  2251.01
 9.09746  2269.28
 9.11957  2267.51
 9.14168  2251.05
 9.16379  2233.46
 9.1859  2216.32
 9.208  2204.81
 9.23011  2201.37
 9.25222  2199.51
 9.27433  2198.57
 9.29644  2198.24
 9.31854  2199.41
 9.34065  2198.53
 9.36276  2198.8
 9.38487  2200.14
 9.40698  2200.33
 9.42908  2203.09
 9.45119  2228.66
 9.4733  2288.52
 9.49541  2314.32
 9.51752  2321.36
 9.53962  2314.2
 9.56173  2241.04
 9.58384  2205.58
 9.60595  2203.27
 9.62806  2206.34
 9.65016  2207.76
 9.67227  2205.97
 9.69438  2202.68
 9.71649  2201.77
 9.7386  2205.15
 9.7607  2205.69
 9.78281  2205.09
 9.80492  2209.62
 9.82703  2215.01
 9.84914  2217.9
 9.87124  2222.34
 9.89335  2227.96
 9.91546  2234.35
 9.93757  2241.26
 9.95968  2251.46
 9.98178  2262.28
 10.0039  2274.31
 10.026  2283.87
 10.0481  2285.21
 10.0702  2278.45
 10.0923  2267.55
 10.1144  2258.1
 10.1365  2252.25
 10.1586  2250.82
 10.1808  2243.87
 10.2029  2235.15
 10.225  2227.08
 10.2471  2222.49
 10.2692  2220.98
 10.2913  2219.04
 10.3134  2218.8
 10.3355  2219.55
 10.3576  2221.87
 10.3797  2222.83
 10.4018  2224.31
 10.4239  2226.32
 10.4461  2226.65
 10.4682  2226.69
 10.4903  2227.59
 10.5124  2230.16
 10.5345  2262.95
 10.5566  2295.17
 10.5787  2291.3
 10.6008  2267.09
 10.6229  2246.93
 10.645  2242.72
 10.6671  2242.61
 10.6892  2244.35
 10.7113  2247.94
 10.7335  2249.17
 10.7556  2251
 10.7777  2253.16
 10.7998  2252.77
 10.8219  2251.8
 10.844  2255.06
 10.8661  2261.48
 10.8882  2266.95
 10.9103  2273.6
 10.9324  2282.3
 10.9545  2293.86
 10.9766  2311.85
 10.9988  2337.48
 11.0209  2429.74
 11.043  2718.53
 11.0651  3086.51
 11.0872  3608.07
 11.1093  4044.53
 11.1314  4222.92
 11.1535  4046.58
 11.1756  3534.34
 11.1977  3100.55
 11.2198  2647.74
 11.2419  2466.06
 11.2641  2442.91
 11.2862  2413.64
 11.3083  2384.05
 11.3304  2325.24
 11.3525  2304.29
 11.3746  2293.88
 11.3967  2287.2
 11.4188  2281.17
 11.4409  2277.13
 11.463  2275.26
 11.4851  2275.3
 11.5072  2276.59
 11.5293  2278.57
 11.5515  2279.52
 11.5736  2282.09
 11.5957  2286.58
 11.6178  2295.34
 11.6399  2308.04
 11.662  2325.19
 11.6841  2351.1
 11.7062  2384.76
 11.7283  2416.68
 11.7504  2450.23
 11.7725  2474.35
 11.7946  2469.47
 11.8168  2443.53
 11.8389  2408.78
 11.861  2374.08
 11.8831  2345.58
 11.9052  2323.14
 11.9273  2305.98
 11.9494  2295.54
 11.9715  2290.59
 11.9936  2286.57
 12.0157  2283.56
 12.0378  2283.44
 12.0599  2283.12
 12.0821  2282.23
 12.1042  2283.94
 12.1263  2286.78
 12.1484  2286.4
 12.1705  2286.48
 12.1926  2287.88
 12.2147  2289.65
 12.2368  2293.47
 12.2589  2297.57
 12.281  2300.06
 12.3031  2304.9
 12.3252  2310.73
 12.3473  2320.06
 12.3695  2333.51
 12.3916  2351.1
 12.4137  2364.61
 12.4358  2374.5
 12.4579  2378.26
 12.48  2371.77
 12.5021  2357.66
 12.5242  2345.36
 12.5463  2339.77
 12.5684  2337.12
 12.5905  2336.27
 12.6126  2337.12
 12.6348  2338.65
 12.6569  2344.59
 12.679  2353.89
 12.7011  2363.06
 12.7232  2373.65
 12.7453  2398.4
 12.7674  2445.98
 12.7895  2501.82
 12.8116  2528.42
 12.8337  2524.57
 12.8558  2540.67
 12.8779  2579.2
 12.9  2589.29
 12.9222  2551.91
 12.9443  2485.98
 12.9664  2415.65
 12.9885  2371.57
 13.0106  2350.5
 13.0327  2339.65
 13.0548  2332.66
 13.0769  2329.19
 13.099  2327.69
 13.1211  2327.46
 13.1432  2327.93
 13.1653  2326.82
 13.1875  2325.98
 13.2096  2325.05
 13.2317  2324.94
 13.2538  2326.28
 13.2759  2329.46
 13.298  2331.5
 13.3201  2332.28
 13.3422  2334.91
 13.3643  2335.77
 13.3864  2335.5
 13.4085  2333.6
 13.4306  2333.44
 13.4527  2331.82
 13.4749  2332.14
 13.497  2335.71
 13.5191  2336.57
 13.5412  2333.93
 13.5633  2330.34
 13.5854  2326.24
 13.6075  2325.92
 13.6296  2325.56
 13.6517  2324.56
 13.6738  2324.15
 13.6959  2327.01
 13.718  2327.92
 13.7402  2328.88
 13.7623  2331.02
 13.7844  2335.17
 13.8065  2339.73
 13.8286  2343.38
 13.8507  2346.1
 13.8728  2349.7
 13.8949  2354.61
 13.917  2360.83
 13.9391  2368.32
 13.9612  2376.64
 13.9833  2382.97
 14.0054  2385.79
 14.0276  2385.95
 14.0497  2384.01
 14.0718  2380.11
 14.0939  2375.82
 14.116  2372.01
 14.1381  2367.5
 14.1602  2361.37
 14.1823  2356.32
 14.2044  2355.05
 14.2265  2355.59
 14.2486  2355.06
 14.2707  2356
 14.2929  2361.1
 14.315  2375.21
 14.3371  2391.79
 14.3592  2395.93
 14.3813  2386.72
 14.4034  2375.76
 14.4255  2370.15
 14.4476  2370.8
 14.4697  2371.84
 14.4918  2366.56
 14.5139  2359.16
 14.536  2355.75
 14.5582  2355.71
 14.5803  2354.82
 14.6024  2354.89
 14.6245  2354.85
 14.6466  2355.09
 14.6687  2357.04
 14.6908  2358.61
 14.7129  2357.02
 14.735  2355.31
 14.7571  2356.33
 14.7792  2357.61
 14.8013  2358.28
 14.8234  2359.5
 14.8456  2361.16
 14.8677  2361.52
 14.8898  2362.21
 14.9119  2362.64
 14.934  2362.51
 14.9561  2363.85
 14.9782  2364.59
 15.0003  2365.8
 15.0224  2365.75
 15.0445  2365.98
 15.0666  2366.73
 15.0887  2367.45
 15.1109  2366.8
 15.133  2367.45
 15.1551  2368.62
 15.1772  2369.96
 15.1993  2371.5
 15.2214  2373.8
 15.2435  2374.38
 15.2656  2375.02
 15.2877  2377.29
 15.3098  2378.41
 15.3319  2377.94
 15.354  2377.54
 15.3761  2377.81
 15.3983  2378.2
 15.4204  2380.09
 15.4425  2381.94
 15.4646  2382.19
 15.4867  2384.8
 15.5088  2387.22
 15.5309  2387.47
 15.553  2389.45
 15.5751  2392.62
 15.5972  2395.98
 15.6193  2401.08
 15.6414  2410.75
 15.6636  2463.21
 15.6857  2490.17
 15.7078  2440.91
 15.7299  2409.46
 15.752  2408.71
 15.7741  2409.08
 15.7962  2408.45
 15.8183  2409.67
 15.8404  2408.97
 15.8625  2409.83
 15.8846  2412.61
 15.9067  2417.33
 15.9289  2423.14
 15.951  2425.56
 15.9731  2424.93
 15.9952  2423.71
 16.0173  2421.41
 16.0394  2416.51
 16.0615  2413.91
 16.0836  2409.06
 16.1057  2403.48
 16.1278  2400.69
 16.1499  2398.12
 16.172  2396.29
 16.1941  2394.87
 16.2163  2394.27
 16.2384  2395.25
 16.2605  2395.07
 16.2826  2393.02
 16.3047  2392.47
 16.3268  2392.23
 16.3489  2392
 16.371  2391.98
 16.3931  2391.51
 16.4152  2392.69
 16.4373  2392.19
 16.4594  2390.48
 16.4816  2389.73
 16.5037  2390.39
 16.5258  2390.29
 16.5479  2390.07
 16.57  2388.52
 16.5921  2387.39
 16.6142  2388.03
 16.6363  2388.23
 16.6584  2388.27
 16.6805  2388.92
 16.7026  2387.58
 16.7247  2386.57
 16.7468  2386.23
 16.769  2387.7
 16.7911  2387.5
 16.8132  2385.5
 16.8353  2383.49
 16.8574  2381.91
 16.8795  2379.73
 16.9016  2378.03
 16.9237  2377.68
 16.9458  2376.8
 16.9679  2376.73
 16.99  2376.29
 17.0121  2375.3
 17.0343  2374.12
 17.0564  2373.26
 17.0785  2373.31
 17.1006  2373.71
 17.1227  2373.78
 17.1448  2373.98
 17.1669  2373.14
 17.189  2372.76
 17.2111  2373.47
 17.2332  2374.52
 17.2553  2377.87
 17.2774  2382.18
 17.2995  2386.24
 17.3217  2392.24
 17.3438  2399.96
 17.3659  2409.95
 17.388  2420.54
 17.4101  2427.31
 17.4322  2430.49
 17.4543  2430.4
 17.4764  2425.28
 17.4985  2417.98
 17.5206  2409.39
 17.5427  2404.3
 17.5648  2400.2
 17.587  2391.74
 17.6091  2382.39
 17.6312  2375.14
 17.6533  2371.39
 17.6754  2367.19
 17.6975  2363
 17.7196  2359.38
 17.7417  2357.15
 17.7638  2355.44
 17.7859  2353.58
 17.808  2352.22
 17.8301  2350.23
 17.8523  2347.7
 17.8744  2347.62
 17.8965  2346.31
 17.9186  2345.24
 17.9407  2345.44
 17.9628  2345.55
 17.9849  2347.17
 18.007  2347.19
 18.0291  2347.8
 18.0512  2350.76
 18.0733  2353.05
 18.0954  2359.32
 18.1175  2372.08
 18.1397  2392.15
 18.1618  2425.42
 18.1839  2473.87
 18.206  2527.43
 18.2281  2610.66
 18.2502  2652.15
 18.2723  2631.39
 18.2944  2565.53
 18.3165  2456.88
 18.3386  2396.28
 18.3607  2366.55
 18.3828  2344.31
 18.405  2328.73
 18.4271  2317.64
 18.4492  2309.82
 18.4713  2303.62
 18.4934  2296.53
 18.5155  2291.34
 18.5376  2286.81
 18.5597  2283.68
 18.5818  2279.95
 18.6039  2278.07
 18.626  2276.58
 18.6481  2274.37
 18.6702  2275.7
 18.6924  2284.61
 18.7145  2295.29
 18.7366  2296.82
 18.7587  2282.73
 18.7808  2269.57
 18.8029  2264.98
 18.825  2263.29
 18.8471  2260.19
 18.8692  2254.4
 18.8913  2251.37
 18.9134  2251.29
 18.9355  2248.31
 18.9577  2244.08
 18.9798  2240.89
 19.0019  2239.02
 19.024  2235.96
 19.0461  2229.76
 19.0682  2223.84
 19.0903  2217.95
 19.1124  2213.98
 19.1345  2210.29
 19.1566  2205.64
 19.1787  2201.14
 19.2008  2198.35
 19.223  2198.07
 19.2451  2195.04
 19.2672  2191.91
 19.2893  2190.1
 19.3114  2192.73
 19.3335  2197.48
 19.3556  2198.93
 19.3777  2200.3
 19.3998  2199.81
 19.4219  2194.85
 19.444  2186.03
 19.4661  2176.44
 19.4882  2169.88
 19.5104  2166.26
 19.5325  2163.75
 19.5546  2161.5
 19.5767  2158.2
 19.5988  2156.22
 19.6209  2154.27
 19.643  2152.73
 19.6651  2149.49
 19.6872  2145.35
 19.7093  2143.95
 19.7314  2141.56
 19.7535  2137.7
 19.7757  2135.08
 19.7978  2131.76
 19.8199  2129.36
 19.842  2127.59
 19.8641  2125.78
 19.8862  2124.38
 19.9083  2122.31
 19.9304  2119.7
 19.9525  2117.89
 19.9746  2116.94
 19.9967  2115.78
 20.0188  2113.43
 20.0409  2111.28
 20.0631  2110.7
 20.0852  2109.04
 20.1073  2106.43
 20.1294  2105.62
 20.1515  2105.44
 20.1736  2104.71
 20.1957  2103.39
 20.2178  2102.17
 20.2399  2100.69
 20.262  2101.34
 20.2841  2102.63
 20.3062  2104.64
 20.3284  2108.73
 20.3505  2112.02
 20.3726  2107.95
 20.3947  2101.11
 20.4168  2097.74
 20.4389  2099.81
 20.461  2111.7
 20.4831  2139.54
 20.5052  2163.66
 20.5273  2156.59
 20.5494  2123.91
 20.5715  2085.73
 20.5936  2075.26
 20.6158  2070.21
 20.6379  2065.27
 20.66  2061.65
 20.6821  2059.33
 20.7042  2056.65
 20.7263  2054.84
 20.7484  2052.82
 20.7705  2052.24
 20.7926  2051.47
 20.8147  2049.15
 20.8368  2047.03
 20.8589  2046.13
 20.8811  2044.9
 20.9032  2045.51
 20.9253  2045.36
 20.9474  2044.54
 20.9695  2042.57
 20.9916  2043.83
 21.0137  2043.32
 21.0358  2042.95
 21.0579  2045.73
 21.08  2049.26
 21.1021  2050.19
 21.1242  2052.82
 21.1464  2060.88
 21.1685  2069.62
 21.1906  2077.58
 21.2127  2089.6
 21.2348  2106.98
 21.2569  2135.54
 21.279  2194.94
 21.3011  2236.25
 21.3232  2249.7
 21.3453  2231.37
 21.3674  2221.69
 21.3895  2237.6
 21.4116  2249.58
 21.4338  2243.3
 21.4559  2232.7
 21.478  2212.03
 21.5001  2184.31
 21.5222  2157.55
 21.5443  2118.26
 21.5664  2074.64
 21.5885  2045.72
 21.6106  2027.8
 21.6327  2013.85
 21.6548  2004.26
 21.6769  1996.75
 21.6991  1991.2
 21.7212  1986.9
 21.7433  1983.11
 21.7654  1979.33
 21.7875  1976.51
 21.8096  1973.64
 21.8317  1970.86
 21.8538  1968.63
 21.8759  1966.18
 21.898  1963.34
 21.9201  1963.05
 21.9422  1962.32
 21.9643  1960.12
 21.9865  1958.51
 22.0086  1957.12
 22.0307  1955.79
 22.0528  1953.6
 22.0749  1952.1
 22.097  1949.83
 22.1191  1948.07
 22.1412  1947.55
 22.1633  1945.95
 22.1854  1944.65
 22.2075  1943.66
 22.2296  1943.09
 22.2518  1941.81
 22.2739  1941.43
 22.296  1942.48
 22.3181  1945.24
 22.3402  1945.56
 22.3623  1946.86
 22.3844  1950.85
 22.4065  1954.09
 22.4286  1949.15
 22.4507  1943.66
 22.4728  1936.34
 22.4949  1928.13
 22.5171  1922.38
 22.5392  1918.32
 22.5613  1915.54
 22.5834  1912.99
 22.6055  1910.02
 22.6276  1906.46
 22.6497  1904.1
 22.6718  1902.38
 22.6939  1901.03
 22.716  1897.42
 22.7381  1895.78
 22.7602  1894.36
 22.7823  1891.62
 22.8045  1889.69
 22.8266  1889.42
 22.8487  1885.66
 22.8708  1884.4
 22.8929  1883.01
 22.915  1878.57
 22.9371  1875.43
 22.9592  1875.41
 22.9813  1870.97
 23.0034  1870.54
 23.0255  1869.85
 23.0476  1867.82
 23.0698  1866.82
 23.0919  1865.63
 23.114  1860.89
 23.1361  1827.13
 23.1582  1722.39
 23.1803  1623.36
 23.2024  1553.53
 23.2245  1511.96
 23.2466  1472.66
 23.2687  1428.48
 23.2908  1386.34
 23.3129  1376.08
 23.335  1355.65
 23.3572  1332.41
 23.3793  1307.11
 23.4014  1286.79
 23.4235  1263.4
 23.4456  1243.27
 23.4677  1226.44
 23.4898  1208.83
 23.5119  1194.52
 23.534  1194.98
 23.5561  1187.58
 23.5782  1181.85
 23.6003  1173.58
 23.6225  1166.47
 23.6446  1156.22
 23.6667  1148.68
 23.6888  1139.15
 23.7109  1133.92
 23.733  1126.83
 23.7551  1121.46
 23.7772  1116.95
 23.7993  1114.84
 23.8214  1112.53
 23.8435  1110.18
 23.8656  1109.88
 23.8877  1107.61
 23.9099  1108.63
 23.932  1107.66
 23.9541  1107.31
 23.9762  1106.48
 23.9983  1105.91
 24.0204  1104.51
 24.0425  1103.89
 24.0646  1099.12
 24.0867  1096.9
 24.1088  1090.83
 24.1309  1083.62
 24.153  1076.5
 24.1752  1065.74
 24.1973  1054.86
 24.2194  1043.18
 24.2415  1028.68
 24.2636  1015.03
 24.2857  1001.3
 24.3078  984.639
 24.3299  967.177
 24.352  949.414
 24.3741  929.92
 24.3962  908.299
 24.4183  885.617
 24.4405  872.523
 24.4626  850.044
 24.4847  822.499
 24.5068  797.316
 24.5289  760.12
 24.551  733.504
 24.5731  684.826
 24.5952  639.991
 24.6173  585.521
 24.6394  549.514
 24.6615  507.113
 24.6836  451.404
 24.7057  380.081
 24.7279  289.636
 24.75  144.967
 24.7721  24.9927
 24.7942  0.0388987
 24.8163  0.0000000E+00
 24.8384  0.0000000E+00
 24.8605  0.0000000E+00
 24.8826  0.0000000E+00
 24.9047  0.0000000E+00
 24.9268  0.0000000E+00
 24.9489  0.0000000E+00
 24.971  0.0000000E+00
 24.9932  0.0000000E+00
 25.0153  0.0000000E+00
 25.0374  0.0000000E+00
 25.0595  0.0000000E+00
 25.0816  0.0000000E+00
 25.1037  0.0000000E+00
 25.1258  0.0000000E+00
 25.1479  0.0000000E+00
 25.17  0.0000000E+00
 25.1921  0.0000000E+00
 25.2142  0.0000000E+00
 25.2363  0.0000000E+00
 25.2584  0.0000000E+00
 25.2806  0.0000000E+00
 25.3027  0.0000000E+00
 25.3248  0.0000000E+00
 25.3469  0.0000000E+00
 25.369  0.0000000E+00
 25.3911  0.0000000E+00
 25.4132  0.0000000E+00
 25.4353  0.0000000E+00
 25.4574  0.0000000E+00
 25.4795  0.0000000E+00
 25.5016  0.0000000E+00
 25.5237  0.0000000E+00
 25.5459  0.0000000E+00
 25.568  0.0000000E+00
 25.5901  0.0000000E+00
 25.6122  0.0000000E+00
 25.6343  0.0000000E+00
 25.6564  0.0000000E+00
 25.6785  0.0000000E+00
 25.7006  0.0000000E+00
 25.7227  0.0000000E+00
 25.7448  0.0000000E+00
 25.7669  0.0000000E+00
 25.789  0.0000000E+00
 25.8112  0.0000000E+00
 25.8333  0.0000000E+00
 25.8554  0.0000000E+00
 25.8775  0.0000000E+00
 25.8996  0.0000000E+00
 25.9217  0.0000000E+00
 25.9438  0.0000000E+00
 25.9659  0.0000000E+00
 25.988  0.0000000E+00
 26.0101  0.0000000E+00
 26.0322  0.0000000E+00
 26.0543  0.0000000E+00
 26.0764  0.0000000E+00
 26.0986  0.0000000E+00
 26.1207  0.0000000E+00
 26.1428  0.0000000E+00
 26.1649  0.0000000E+00
 26.187  0.0000000E+00
 26.2091  0.0000000E+00
 26.2312  0.0000000E+00
 26.2533  0.0000000E+00
 26.2754  0.0000000E+00
 26.2975  0.0000000E+00
 26.3196  0.0000000E+00
 26.3417  0.0000000E+00
 26.3639  0.0000000E+00
 26.386  0.0000000E+00
 26.4081  0.0000000E+00
 26.4302  0.0000000E+00
 26.4523  0.0000000E+00
 26.4744  0.0000000E+00
 26.4965  0.0000000E+00
 26.5186  0.0000000E+00
 26.5407  0.0000000E+00
 26.5628  0.0000000E+00
 26.5849  0.0000000E+00
 26.607  0.0000000E+00
 26.6291  0.0000000E+00
 26.6513  0.0000000E+00
 26.6734  0.0000000E+00
 26.6955  0.0000000E+00
 26.7176  0.0000000E+00
 26.7397  0.0000000E+00
 26.7618  0.0000000E+00
 26.7839  0.0000000E+00
 26.806  0.0000000E+00
 26.8281  0.0000000E+00
 26.8502  0.0000000E+00
 26.8723  0.0000000E+00
 26.8944  0.0000000E+00
 26.9166  0.0000000E+00
 26.9387  0.0000000E+00
 26.9608  0.0000000E+00
 26.9829  0.0000000E+00
 27.005  0.0000000E+00
 27.0271  0.0000000E+00
 27.0492  0.0000000E+00
 27.0713  0.0000000E+00
 27.0934  0.0000000E+00
 27.1155  0.0000000E+00
 27.1376  0.0000000E+00
 27.1597  0.0000000E+00
 27.1818  0.0000000E+00
 27.204  0.0000000E+00
 27.2261  0.0000000E+00
 27.2482  0.0000000E+00
 27.2703  0.0000000E+00
 27.2924  0.0000000E+00
 27.3145  0.0000000E+00
 27.3366  0.0000000E+00
 27.3587  0.0000000E+00
 27.3808  0.0000000E+00
 27.4029  0.0000000E+00
 27.425  0.0000000E+00
 27.4471  0.0000000E+00
 27.4693  0.0000000E+00
 27.4914  0.0000000E+00
 27.5135  0.0000000E+00
 27.5356  0.0000000E+00
 27.5577  0.0000000E+00
 27.5798  0.0000000E+00
 27.6019  0.0000000E+00
 27.624  0.0000000E+00
 27.6461  0.0000000E+00
 27.6682  0.0000000E+00
 27.6903  0.0000000E+00
 27.7124  0.0000000E+00
 27.7345  0.0000000E+00
 27.7567  0.0000000E+00
 27.7788  0.0000000E+00
 27.8009  0.0000000E+00
 27.823  0.0000000E+00
 27.8451  0.0000000E+00
 27.8672  0.0000000E+00
 27.8893  0.0000000E+00
 27.9114  0.0000000E+00
 27.9335  0.0000000E+00
 27.9556  0.0000000E+00
 27.9777  0.0000000E+00
 27.9998  0.0000000E+00
 28.022  0.0000000E+00
 28.0441  0.0000000E+00
 28.0662  0.0000000E+00
 28.0883  0.0000000E+00
 28.1104  0.0000000E+00
 28.1325  0.0000000E+00
 28.1546  0.0000000E+00
 28.1767  0.0000000E+00
 28.1988  0.0000000E+00
 28.2209  0.0000000E+00
 28.243  0.0000000E+00
 28.2651  0.0000000E+00
 28.2873  0.0000000E+00
 28.3094  0.0000000E+00
 28.3315  0.0000000E+00
 28.3536  0.0000000E+00
 28.3757  0.0000000E+00
 28.3978  0.0000000E+00
 28.4199  0.0000000E+00
 28.442  0.0000000E+00
 28.4641  0.0000000E+00
 28.4862  0.0000000E+00
 28.5083  0.0000000E+00
 28.5304  0.0000000E+00
 28.5525  0.0000000E+00
 28.5747  0.0000000E+00
 28.5968  0.0000000E+00
 28.6189  0.0000000E+00
 28.641  0.0000000E+00
 28.6631  0.0000000E+00
 28.6852  0.0000000E+00
 28.7073  0.0000000E+00
 28.7294  0.0000000E+00
 28.7515  0.0000000E+00
 28.7736  0.0000000E+00
 28.7957  0.0000000E+00
 28.8178  0.0000000E+00
 28.84  0.0000000E+00
 28.8621  0.0000000E+00
 28.8842  0.0000000E+00
 28.9063  0.0000000E+00
 28.9284  0.0000000E+00
 28.9505  0.0000000E+00
 28.9726  0.0000000E+00
 28.9947  0.0000000E+00
 29.0168  0.0000000E+00
 29.0389  0.0000000E+00
 29.061  0.0000000E+00
 29.0831  0.0000000E+00
 29.1052  0.0000000E+00
 29.1274  0.0000000E+00
 29.1495  0.0000000E+00
 29.1716  0.0000000E+00
 29.1937  0.0000000E+00
 29.2158  0.0000000E+00
 29.2379  0.0000000E+00
 29.26  0.0000000E+00
 29.2821  0.0000000E+00
 29.3042  0.0000000E+00
 29.3263  0.0000000E+00
 29.3484  0.0000000E+00
 29.3705  0.0000000E+00
 29.3927  0.0000000E+00
 29.4148  0.0000000E+00
 29.4369  0.0000000E+00
 29.459  0.0000000E+00
 29.4811  0.0000000E+00
 29.5032  0.0000000E+00
 29.5253  0.0000000E+00
 29.5474  0.0000000E+00
 29.5695  0.0000000E+00
 29.5916  0.0000000E+00
 29.6137  0.0000000E+00
 29.6358  0.0000000E+00
 29.658  0.0000000E+00
 29.6801  0.0000000E+00
 29.7022  0.0000000E+00
 29.7243  0.0000000E+00
 29.7464  0.0000000E+00
 29.7685  0.0000000E+00
 29.7906  0.0000000E+00
 29.8127  0.0000000E+00
 29.8348  0.0000000E+00
 29.8569  0.0000000E+00
 29.879  0.0000000E+00
 29.9011  0.0000000E+00
 29.9232  0.0000000E+00
 29.9454  0.0000000E+00
 29.9675  0.0000000E+00
 29.9896  0.0000000E+00
 30.0117  0.0000000E+00
 30.0338  0.0000000E+00
 30.0559  0.0000000E+00
 30.078  0.0000000E+00
 30.1001  0.0000000E+00
 30.1222  0.0000000E+00
 30.1443  0.0000000E+00
 30.1664  0.0000000E+00
 30.1885  0.0000000E+00
 30.2107  0.0000000E+00
 30.2328  0.0000000E+00
 30.2549  0.0000000E+00
 30.277  0.0000000E+00
 30.2991  0.0000000E+00
 30.3212  0.0000000E+00
 30.3433  0.0000000E+00
 30.3654  0.0000000E+00
 30.3875  0.0000000E+00
 30.4096  0.0000000E+00
 30.4317  0.0000000E+00
 30.4538  0.0000000E+00
 30.4759  0.0000000E+00
 30.4981  0.0000000E+00
 30.5202  0.0000000E+00
 30.5423  0.0000000E+00
 30.5644  0.0000000E+00
 30.5865  0.0000000E+00
 30.6086  0.0000000E+00
 30.6307  0.0000000E+00
 30.6528  0.0000000E+00
 30.6749  0.0000000E+00
 30.697  0.0000000E+00
 30.7191  0.0000000E+00
 30.7412  0.0000000E+00
 30.7634  0.0000000E+00
 30.7855  0.0000000E+00
 30.8076  0.0000000E+00
 30.8297  0.0000000E+00
 30.8518  0.0000000E+00
 30.8739  0.0000000E+00
 30.896  0.0000000E+00
 30.9181  0.0000000E+00
 30.9402  0.0000000E+00
 30.9623  0.0000000E+00
 30.9844  0.0000000E+00
 31.0065  0.0000000E+00
 31.0286  0.0000000E+00
 31.0508  0.0000000E+00
 31.0729  0.0000000E+00
 31.095  0.0000000E+00
 31.1171  0.0000000E+00
 31.1392  0.0000000E+00
 31.1613  0.0000000E+00
 31.1834  0.0000000E+00
 31.2055  0.0000000E+00
 31.2276  0.0000000E+00
 31.2497  0.0000000E+00
 31.2718  0.0000000E+00
 31.2939  0.0000000E+00
 31.3161  0.0000000E+00
 31.3382  0.0000000E+00
 31.3603  0.0000000E+00
 31.3824  0.0000000E+00
 31.4045  0.0000000E+00
 31.4266  0.0000000E+00
 31.4487  0.0000000E+00
 31.4708  0.0000000E+00
 31.4929  0.0000000E+00
 31.515  0.0000000E+00
 31.5371  0.0000000E+00
 31.5592  0.0000000E+00
 31.5814  0.0000000E+00
 31.6035  0.0000000E+00
 31.6256  0.0000000E+00
 31.6477  0.0000000E+00
 31.6698  0.0000000E+00
 31.6919  0.0000000E+00
 31.714  0.0000000E+00
 31.7361  0.0000000E+00
 31.7582  0.0000000E+00
 31.7803  0.0000000E+00
 31.8024  0.0000000E+00
 31.8245  0.0000000E+00
 31.8466  0.0000000E+00
 31.8688  0.0000000E+00
 31.8909  0.0000000E+00
 31.913  0.0000000E+00
 31.9351  0.0000000E+00
 31.9572  0.0000000E+00
 31.9793  0.0000000E+00
 32.0014  0.0000000E+00
 32.0235  0.0000000E+00
 32.0456  0.0000000E+00
 32.0677  0.0000000E+00
 32.0898  0.0000000E+00
 32.1119  0.0000000E+00
 32.1341  0.0000000E+00
 32.1562  0.0000000E+00
 32.1783  0.0000000E+00
 32.2004  0.0000000E+00
 32.2225  0.0000000E+00
 32.2446  0.0000000E+00
 32.2667  0.0000000E+00
 32.2888  0.0000000E+00
 32.3109  0.0000000E+00
 32.333  0.0000000E+00
 32.3551  0.0000000E+00
 32.3772  0.0000000E+00
 32.3993  0.0000000E+00
 32.4215  0.0000000E+00
 32.4436  0.0000000E+00
 32.4657  0.0000000E+00
 32.4878  0.0000000E+00
 32.5099  0.0000000E+00
 32.532  0.0000000E+00
 32.5541  0.0000000E+00
 32.5762  0.0000000E+00
 32.5983  0.0000000E+00
 32.6204  0.0000000E+00
 32.6425  0.0000000E+00
 32.6646  0.0000000E+00
 32.6868  0.0000000E+00
 32.7089  0.0000000E+00
 32.731  0.0000000E+00