File: BA_8.chi
D:\DATA\UserData\CuiTian20190403\\CWH\BA\BA_8.tif: 2-theta Scan
2-Theta Angle (Degrees)
Intensity
       1481
 0.011054  41.5294
 0.0331621  45.0893
 0.0552701  47.9853
 0.0773782  47.3637
 0.0994862  45.7604
 0.121594  43.3255
 0.143702  41.4274
 0.16581  42.1773
 0.187918  43.3467
 0.210026  42.9025
 0.232135  43.0035
 0.254243  44.7661
 0.276351  44.9721
 0.298459  43.5748
 0.320567  43.5805
 0.342675  42.8179
 0.364783  42.1474
 0.386891  42.4837
 0.408999  43.1213
 0.431107  43.3571
 0.453215  43.571
 0.475323  44.2164
 0.497431  44.0261
 0.519539  43.6218
 0.541647  43.5568
 0.563755  43.7674
 0.585863  44.1683
 0.607971  43.9824
 0.630079  44.0152
 0.652188  43.778
 0.674296  43.6994
 0.696404  44.3037
 0.718512  44.6204
 0.74062  44.3581
 0.762728  43.6138
 0.784836  44.0239
 0.806944  44.5939
 0.829052  44.5787
 0.85116  44.1357
 0.873268  43.9257
 0.895376  44.4598
 0.917484  44.1487
 0.939592  44.2854
 0.9617  44.8744
 0.983808  44.4884
 1.00592  44.142
 1.02802  43.4567
 1.05013  42.9791
 1.07224  43.4762
 1.09435  44.302
 1.11646  45.0472
 1.13856  45.3323
 1.16067  45.3607
 1.18278  45.5856
 1.20489  45.7276
 1.227  46.1757
 1.2491  46.3239
 1.27121  46.1077
 1.29332  46.3961
 1.31543  46.1958
 1.33754  45.9933
 1.35965  45.9076
 1.38175  46.4789
 1.40386  47.6314
 1.42597  47.8837
 1.44808  47.9281
 1.47019  48.3328
 1.49229  48.5729
 1.5144  48.4236
 1.53651  48.5561
 1.55862  48.7544
 1.58073  49.1094
 1.60283  49.8446
 1.62494  50.353
 1.64705  50.2501
 1.66916  50.5034
 1.69127  50.9914
 1.71337  51.2069
 1.73548  51.805
 1.75759  52.6446
 1.7797  54.0476
 1.80181  55.4713
 1.82391  57.7468
 1.84602  60.8701
 1.86813  66.9007
 1.89024  80.663
 1.91235  106.874
 1.93445  146.403
 1.95656  191.97
 1.97867  237.902
 2.00078  280.828
 2.02289  322.379
 2.04499  364.623
 2.0671  407.101
 2.08921  455.635
 2.11132  511.494
 2.13343  576.013
 2.15553  645.281
 2.17764  714.633
 2.19975  768.313
 2.22186  807.28
 2.24397  842.822
 2.26608  879.537
 2.28818  919.205
 2.31029  954.467
 2.3324  987.258
 2.35451  1017.62
 2.37662  1050.44
 2.39872  1086.41
 2.42083  1120.24
 2.44294  1150.33
 2.46505  1180.89
 2.48716  1213.04
 2.50926  1240.47
 2.53137  1271.55
 2.55348  1300.74
 2.57559  1326.62
 2.5977  1349.59
 2.6198  1375.32
 2.64191  1401.35
 2.66402  1424.74
 2.68613  1450.2
 2.70824  1474.4
 2.73034  1498.02
 2.75245  1519.36
 2.77456  1541.75
 2.79667  1562.8
 2.81878  1584.61
 2.84088  1603.94
 2.86299  1621.49
 2.8851  1643.06
 2.90721  1666.13
 2.92932  1683.72
 2.95142  1700.75
 2.97353  1717.29
 2.99564  1733.87
 3.01775  1752.56
 3.03986  1769.6
 3.06196  1784.77
 3.08407  1801.08
 3.10618  1816.77
 3.12829  1831.11
 3.1504  1845.25
 3.17251  1857.33
 3.19461  1871.49
 3.21672  1884.79
 3.23883  1899.19
 3.26094  1912.74
 3.28305  1923.18
 3.30515  1938.37
 3.32726  1947.93
 3.34937  1957.83
 3.37148  1970.53
 3.39359  1983.97
 3.41569  1994.98
 3.4378  2006.11
 3.45991  2015.46
 3.48202  2022.52
 3.50413  2032.47
 3.52623  2042.1
 3.54834  2051.28
 3.57045  2062.14
 3.59256  2075.23
 3.61467  2084.14
 3.63677  2092.25
 3.65888  2099.95
 3.68099  2107.3
 3.7031  2116.67
 3.72521  2124.31
 3.74731  2129.82
 3.76942  2136.52
 3.79153  2144.79
 3.81364  2155.41
 3.83575  2164.86
 3.85785  2168.81
 3.87996  2173.76
 3.90207  2181.87
 3.92418  2187.14
 3.94629  2190.78
 3.9684  2198.3
 3.9905  2206.98
 4.01261  2212.5
 4.03472  2216.87
 4.05683  2222.92
 4.07894  2228.84
 4.10104  2233.5
 4.12315  2238.92
 4.14526  2242.27
 4.16737  2244.62
 4.18948  2248.21
 4.21158  2249.69
 4.23369  2252.53
 4.2558  2255.1
 4.27791  2258.32
 4.30002  2263.63
 4.32212  2270.35
 4.34423  2273.54
 4.36634  2275.31
 4.38845  2277.26
 4.41056  2279.67
 4.43266  2281.52
 4.45477  2285.42
 4.47688  2289.08
 4.49899  2289.61
 4.5211  2291.17
 4.5432  2298.13
 4.56531  2302.6
 4.58742  2301.46
 4.60953  2302.56
 4.63164  2303.29
 4.65374  2305.83
 4.67585  2308.31
 4.69796  2309.51
 4.72007  2308.32
 4.74218  2308.13
 4.76429  2312.26
 4.78639  2314.94
 4.8085  2314.29
 4.83061  2313.78
 4.85272  2311.86
 4.87483  2309.77
 4.89693  2310.72
 4.91904  2313.6
 4.94115  2317.06
 4.96326  2319.59
 4.98537  2322.75
 5.00747  2319.46
 5.02958  2319.51
 5.05169  2320.53
 5.0738  2322.28
 5.09591  2321.9
 5.11801  2323.5
 5.14012  2324.97
 5.16223  2323.25
 5.18434  2324.57
 5.20645  2324.18
 5.22855  2323.13
 5.25066  2322.23
 5.27277  2320.4
 5.29488  2318.02
 5.31699  2319.38
 5.33909  2322.09
 5.3612  2319.75
 5.38331  2320.07
 5.40542  2322.43
 5.42753  2322.41
 5.44963  2320.11
 5.47174  2319.48
 5.49385  2320.24
 5.51596  2319.83
 5.53807  2319.1
 5.56017  2321.49
 5.58228  2321.41
 5.60439  2319.92
 5.6265  2318.88
 5.64861  2315.88
 5.67072  2314.11
 5.69282  2315.13
 5.71493  2315.89
 5.73704  2317.64
 5.75915  2316.38
 5.78126  2313.42
 5.80336  2314.24
 5.82547  2313.18
 5.84758  2312.88
 5.86969  2312.31
 5.8918  2312.02
 5.9139  2310.95
 5.93601  2311
 5.95812  2311.57
 5.98023  2309.51
 6.00234  2308.43
 6.02444  2308.51
 6.04655  2308.54
 6.06866  2308.24
 6.09077  2306.39
 6.11288  2307.17
 6.13498  2306.84
 6.15709  2305.28
 6.1792  2303.13
 6.20131  2298.2
 6.22342  2296.96
 6.24552  2299.15
 6.26763  2298.95
 6.28974  2299.55
 6.31185  2298
 6.33396  2295.49
 6.35606  2295.99
 6.37817  2300.08
 6.40028  2308.58
 6.42239  2313.97
 6.4445  2309.48
 6.4666  2301.7
 6.48871  2296.1
 6.51082  2291.7
 6.53293  2289.22
 6.55504  2290.78
 6.57715  2290.43
 6.59925  2288.88
 6.62136  2288.46
 6.64347  2288.72
 6.66558  2289.7
 6.68769  2290.16
 6.70979  2288.64
 6.7319  2287.39
 6.75401  2285.78
 6.77612  2283.42
 6.79823  2280.19
 6.82033  2277.61
 6.84244  2277.54
 6.86455  2278.71
 6.88666  2279.4
 6.90877  2279.56
 6.93087  2277.08
 6.95298  2275.52
 6.97509  2278.6
 6.9972  2279.25
 7.01931  2277.34
 7.04141  2276.57
 7.06352  2275.53
 7.08563  2273.13
 7.10774  2271.74
 7.12985  2269.62
 7.15195  2268.12
 7.17406  2268.78
 7.19617  2270.17
 7.21828  2266.57
 7.24039  2263.91
 7.26249  2265.27
 7.2846  2264.74
 7.30671  2263.95
 7.32882  2262.21
 7.35093  2261.38
 7.37303  2262.8
 7.39514  2263.58
 7.41725  2259.99
 7.43936  2258.07
 7.46147  2256.76
 7.48358  2257.85
 7.50568  2257.88
 7.52779  2256.67
 7.5499  2257.51
 7.57201  2257
 7.59412  2254.5
 7.61622  2253.31
 7.63833  2253.47
 7.66044  2252.73
 7.68255  2251.52
 7.70466  2249.57
 7.72676  2249.4
 7.74887  2250.03
 7.77098  2250.56
 7.79309  2248.87
 7.8152  2249.69
 7.8373  2250.64
 7.85941  2248.47
 7.88152  2247.37
 7.90363  2249.16
 7.92574  2250.41
 7.94784  2249.85
 7.96995  2247.69
 7.99206  2245.77
 8.01417  2246.75
 8.03628  2247.43
 8.05838  2246.82
 8.08049  2246.04
 8.1026  2246.41
 8.12471  2245.49
 8.14682  2243.78
 8.16893  2243.04
 8.19103  2244.34
 8.21314  2245.6
 8.23525  2245.17
 8.25736  2244.93
 8.27946  2243.9
 8.30157  2244.11
 8.32368  2244.5
 8.34579  2244.92
 8.3679  2243.55
 8.39001  2245.43
 8.41211  2247.2
 8.43422  2244.59
 8.45633  2242.91
 8.47844  2243.68
 8.50055  2245.53
 8.52265  2246.23
 8.54476  2247.55
 8.56687  2250.46
 8.58898  2256.02
 8.61109  2261.43
 8.63319  2268.63
 8.6553  2279.39
 8.67741  2291.85
 8.69952  2306.83
 8.72163  2317.41
 8.74373  2315.63
 8.76584  2303.24
 8.78795  2287.32
 8.81006  2274.2
 8.83217  2266.23
 8.85427  2263.48
 8.87638  2261.27
 8.89849  2256.5
 8.9206  2251.9
 8.94271  2249.93
 8.96482  2250.43
 8.98692  2254.26
 9.00903  2262.59
 9.03114  2278.01
 9.05325  2295.87
 9.07535  2310.22
 9.09746  2316.59
 9.11957  2316.56
 9.14168  2302.75
 9.16379  2277.68
 9.1859  2262
 9.208  2257.01
 9.23011  2254.2
 9.25222  2251.03
 9.27433  2248.5
 9.29644  2249.45
 9.31854  2248.7
 9.34065  2249.27
 9.36276  2248.1
 9.38487  2247
 9.40698  2249.24
 9.42908  2254.39
 9.45119  2278.81
 9.4733  2339.5
 9.49541  2351.3
 9.51752  2370.29
 9.53962  2364.48
 9.56173  2288.84
 9.58384  2256.87
 9.60595  2256.54
 9.62806  2256.61
 9.65016  2254.73
 9.67227  2254
 9.69438  2252.16
 9.71649  2250.95
 9.7386  2254.16
 9.7607  2255.97
 9.78281  2256.89
 9.80492  2260.22
 9.82703  2263.43
 9.84914  2267.98
 9.87124  2273.35
 9.89335  2279.99
 9.91546  2285.08
 9.93757  2292.08
 9.95968  2300.44
 9.98178  2310.51
 10.0039  2319.39
 10.026  2324.47
 10.0481  2323.46
 10.0702  2317.72
 10.0923  2307.73
 10.1144  2301.03
 10.1365  2298.72
 10.1586  2295.45
 10.1808  2288.22
 10.2029  2281.42
 10.225  2277.11
 10.2471  2272.32
 10.2692  2269.33
 10.2913  2269.03
 10.3134  2268.43
 10.3355  2268.09
 10.3576  2269.08
 10.3797  2270.83
 10.4018  2273.28
 10.4239  2274.59
 10.4461  2274.57
 10.4682  2275.61
 10.4903  2278.22
 10.5124  2283.96
 10.5345  2319.67
 10.5566  2350.68
 10.5787  2343.7
 10.6008  2315.42
 10.6229  2295.1
 10.645  2295.09
 10.6671  2297.06
 10.6892  2298.88
 10.7113  2300.74
 10.7335  2302.97
 10.7556  2306.34
 10.7777  2310.52
 10.7998  2310.21
 10.8219  2309.31
 10.844  2311.3
 10.8661  2316.26
 10.8882  2323.26
 10.9103  2331.57
 10.9324  2350.56
 10.9545  2487.06
 10.9766  2656.6
 10.9988  2757.34
 11.0209  2952.14
 11.043  3299.41
 11.0651  3632.55
 11.0872  3900.82
 11.1093  4074.72
 11.1314  4087.58
 11.1535  3837.04
 11.1756  3382.77
 11.1977  2989.55
 11.2198  2755.66
 11.2419  2574.88
 11.2641  2451.41
 11.2862  2391.52
 11.3083  2370.55
 11.3304  2356.38
 11.3525  2348.01
 11.3746  2341.49
 11.3967  2336.9
 11.4188  2332.73
 11.4409  2330.23
 11.463  2329.52
 11.4851  2330.06
 11.5072  2330.12
 11.5293  2331.24
 11.5515  2333.43
 11.5736  2338.32
 11.5957  2345.68
 11.6178  2357.04
 11.6399  2369.38
 11.662  2385.08
 11.6841  2408.88
 11.7062  2435.37
 11.7283  2454.52
 11.7504  2470.23
 11.7725  2482.94
 11.7946  2485.31
 11.8168  2469.73
 11.8389  2438.44
 11.861  2406.03
 11.8831  2380.66
 11.9052  2363.86
 11.9273  2352.79
 11.9494  2344.42
 11.9715  2339.9
 11.9936  2339.54
 12.0157  2339.29
 12.0378  2339.62
 12.0599  2339.17
 12.0821  2338.58
 12.1042  2338.73
 12.1263  2339.33
 12.1484  2340.19
 12.1705  2341.35
 12.1926  2342.73
 12.2147  2343.45
 12.2368  2347.43
 12.2589  2351.74
 12.281  2356.27
 12.3031  2362.33
 12.3252  2370.7
 12.3473  2380.92
 12.3695  2394.17
 12.3916  2410.17
 12.4137  2421.33
 12.4358  2426.86
 12.4579  2427.06
 12.48  2419.94
 12.5021  2407.41
 12.5242  2397.74
 12.5463  2393.09
 12.5684  2391.3
 12.5905  2394.53
 12.6126  2398.43
 12.6348  2403.6
 12.6569  2411.12
 12.679  2423.42
 12.7011  2438.58
 12.7232  2463.45
 12.7453  2513.69
 12.7674  2550.08
 12.7895  2545.43
 12.8116  2547.29
 12.8337  2590.15
 12.8558  2657.98
 12.8779  2700.51
 12.9  2664.96
 12.9222  2568.09
 12.9443  2482.71
 12.9664  2433.38
 12.9885  2408.69
 13.0106  2395.81
 13.0327  2389.68
 13.0548  2386.57
 13.0769  2384.76
 13.099  2383.37
 13.1211  2382.26
 13.1432  2382.6
 13.1653  2383.49
 13.1875  2383.83
 13.2096  2384.61
 13.2317  2384.01
 13.2538  2384.83
 13.2759  2386.54
 13.298  2388.08
 13.3201  2389.72
 13.3422  2390.59
 13.3643  2390.51
 13.3864  2391.15
 13.4085  2389.65
 13.4306  2387.2
 13.4527  2385.91
 13.4749  2388.09
 13.497  2390
 13.5191  2390.1
 13.5412  2388.09
 13.5633  2385.3
 13.5854  2381.12
 13.6075  2379.53
 13.6296  2379.07
 13.6517  2381.12
 13.6738  2382.32
 13.6959  2381.88
 13.718  2381.55
 13.7402  2383.21
 13.7623  2387.19
 13.7844  2392.31
 13.8065  2396.17
 13.8286  2399.62
 13.8507  2405.64
 13.8728  2410.57
 13.8949  2416.9
 13.917  2424.99
 13.9391  2432.37
 13.9612  2437.76
 13.9833  2442.97
 14.0054  2444.18
 14.0276  2442.58
 14.0497  2438.3
 14.0718  2433.45
 14.0939  2427.06
 14.116  2420.42
 14.1381  2415.94
 14.1602  2410.92
 14.1823  2407.92
 14.2044  2406.06
 14.2265  2405.29
 14.2486  2407.9
 14.2707  2419.56
 14.2929  2446.24
 14.315  2470.78
 14.3371  2466.99
 14.3592  2439.36
 14.3813  2424.84
 14.4034  2424.11
 14.4255  2423.64
 14.4476  2422.09
 14.4697  2416.1
 14.4918  2409.85
 14.5139  2408.68
 14.536  2406.87
 14.5582  2406.1
 14.5803  2406.15
 14.6024  2405.96
 14.6245  2406.51
 14.6466  2406.55
 14.6687  2406.58
 14.6908  2408.75
 14.7129  2410.84
 14.735  2410.91
 14.7571  2409.39
 14.7792  2409.26
 14.8013  2409.54
 14.8234  2409.68
 14.8456  2412.22
 14.8677  2413.11
 14.8898  2413.63
 14.9119  2414.33
 14.934  2414.06
 14.9561  2414.98
 14.9782  2415.58
 15.0003  2416.21
 15.0224  2417.34
 15.0445  2418.07
 15.0666  2419.39
 15.0887  2422
 15.1109  2422.28
 15.133  2422.18
 15.1551  2423.12
 15.1772  2422.97
 15.1993  2423.36
 15.2214  2424.5
 15.2435  2425.86
 15.2656  2427.28
 15.2877  2428.15
 15.3098  2428.9
 15.3319  2428.69
 15.354  2428.57
 15.3761  2430.69
 15.3983  2431.02
 15.4204  2432.94
 15.4425  2434.87
 15.4646  2434.5
 15.4867  2436.3
 15.5088  2440.9
 15.5309  2442.41
 15.553  2444.62
 15.5751  2448.54
 15.5972  2456.83
 15.6193  2469.2
 15.6414  2476.56
 15.6636  2474.85
 15.6857  2469.27
 15.7078  2464.17
 15.7299  2462.22
 15.752  2461.75
 15.7741  2462.06
 15.7962  2462.12
 15.8183  2462.66
 15.8404  2462.18
 15.8625  2466.15
 15.8846  2470.08
 15.9067  2472.73
 15.9289  2473.65
 15.951  2473.55
 15.9731  2471.5
 15.9952  2470.6
 16.0173  2469.04
 16.0394  2464.58
 16.0615  2459.62
 16.0836  2454.57
 16.1057  2451.01
 16.1278  2451.01
 16.1499  2450.36
 16.172  2449.37
 16.1941  2447.55
 16.2163  2445.57
 16.2384  2446.3
 16.2605  2445.87
 16.2826  2445.09
 16.3047  2445.07
 16.3268  2444.6
 16.3489  2444.02
 16.371  2445.56
 16.3931  2445.83
 16.4152  2445.71
 16.4373  2445.92
 16.4594  2443.66
 16.4816  2441.07
 16.5037  2441.47
 16.5258  2441.23
 16.5479  2440.67
 16.57  2440.68
 16.5921  2440.07
 16.6142  2439.73
 16.6363  2439.23
 16.6584  2440.12
 16.6805  2440.37
 16.7026  2439.3
 16.7247  2439.36
 16.7468  2440.15
 16.769  2440.04
 16.7911  2440.04
 16.8132  2438.41
 16.8353  2436.61
 16.8574  2434.87
 16.8795  2433.4
 16.9016  2432.76
 16.9237  2431.28
 16.9458  2431.49
 16.9679  2432.88
 16.99  2431.35
 17.0121  2429.59
 17.0343  2428.24
 17.0564  2427.47
 17.0785  2426.72
 17.1006  2428.13
 17.1227  2428.38
 17.1448  2428.44
 17.1669  2428.03
 17.189  2429.79
 17.2111  2430.91
 17.2332  2431
 17.2553  2434.11
 17.2774  2438.93
 17.2995  2444.23
 17.3217  2451.02
 17.3438  2459.09
 17.3659  2468.97
 17.388  2476.86
 17.4101  2479.89
 17.4322  2478.3
 17.4543  2473.3
 17.4764  2467.61
 17.4985  2463.49
 17.5206  2458.63
 17.5427  2451.39
 17.5648  2442.73
 17.587  2434.53
 17.6091  2429.55
 17.6312  2424.24
 17.6533  2419.3
 17.6754  2415.09
 17.6975  2412.49
 17.7196  2409.84
 17.7417  2407.87
 17.7638  2406.77
 17.7859  2405.13
 17.808  2404.1
 17.8301  2404.27
 17.8523  2402.33
 17.8744  2400.86
 17.8965  2400.34
 17.9186  2400.07
 17.9407  2400.62
 17.9628  2399.87
 17.9849  2399.64
 18.007  2401.47
 18.0291  2404.28
 18.0512  2407.14
 18.0733  2410.67
 18.0954  2418.82
 18.1175  2436.03
 18.1397  2468.02
 18.1618  2496.59
 18.1839  2511.57
 18.206  2516.46
 18.2281  2516.59
 18.2502  2504.97
 18.2723  2474.55
 18.2944  2440.94
 18.3165  2416.8
 18.3386  2397.32
 18.3607  2381.96
 18.3828  2372.09
 18.405  2366.23
 18.4271  2359.49
 18.4492  2352.37
 18.4713  2346.37
 18.4934  2342.04
 18.5155  2338.28
 18.5376  2332.64
 18.5597  2329.63
 18.5818  2327.05
 18.6039  2324.15
 18.626  2323.22
 18.6481  2324.58
 18.6702  2329.82
 18.6924  2335.22
 18.7145  2331.38
 18.7366  2325.29
 18.7587  2318.83
 18.7808  2316.22
 18.8029  2313.12
 18.825  2309
 18.8471  2305.75
 18.8692  2302.22
 18.8913  2299.41
 18.9134  2299.53
 18.9355  2299.84
 18.9577  2297.5
 18.9798  2292.71
 19.0019  2289.35
 19.024  2285.28
 19.0461  2278.92
 19.0682  2272.69
 19.0903  2267.05
 19.1124  2263.31
 19.1345  2258.7
 19.1566  2253.52
 19.1787  2250.1
 19.2008  2248.1
 19.223  2246.93
 19.2451  2246.23
 19.2672  2248.28
 19.2893  2252.67
 19.3114  2257.33
 19.3335  2261.04
 19.3556  2261.44
 19.3777  2255.98
 19.3998  2247.47
 19.4219  2238.43
 19.444  2229.31
 19.4661  2221.26
 19.4882  2216.46
 19.5104  2213.24
 19.5325  2210.13
 19.5546  2208.03
 19.5767  2205.48
 19.5988  2201.73
 19.6209  2200.17
 19.643  2198.75
 19.6651  2194.37
 19.6872  2190.82
 19.7093  2188.9
 19.7314  2187.14
 19.7535  2184.09
 19.7757  2181.41
 19.7978  2178.98
 19.8199  2176.13
 19.842  2173.83
 19.8641  2172.52
 19.8862  2171.25
 19.9083  2169.33
 19.9304  2165.91
 19.9525  2163.79
 19.9746  2162.59
 19.9967  2160.96
 20.0188  2159.04
 20.0409  2157.34
 20.0631  2156.92
 20.0852  2156.68
 20.1073  2154.3
 20.1294  2152.51
 20.1515  2152.74
 20.1736  2152.32
 20.1957  2150.9
 20.2178  2149.53
 20.2399  2149.3
 20.262  2149.74
 20.2841  2149.86
 20.3062  2148.15
 20.3284  2146.18
 20.3505  2144.54
 20.3726  2143.75
 20.3947  2142.8
 20.4168  2147.54
 20.4389  2163.44
 20.461  2182.85
 20.4831  2174.31
 20.5052  2149.95
 20.5273  2130.85
 20.5494  2121.01
 20.5715  2114.67
 20.5936  2110.3
 20.6158  2108.79
 20.6379  2106.94
 20.66  2104.93
 20.6821  2103.37
 20.7042  2100.5
 20.7263  2098.54
 20.7484  2097.38
 20.7705  2096.17
 20.7926  2094.55
 20.8147  2093.77
 20.8368  2093.14
 20.8589  2091.57
 20.8811  2089.89
 20.9032  2089.62
 20.9253  2089.07
 20.9474  2087.73
 20.9695  2086.92
 20.9916  2089.31
 21.0137  2089.78
 21.0358  2088.97
 21.0579  2092.48
 21.08  2097.92
 21.1021  2102.91
 21.1242  2108.33
 21.1464  2116.24
 21.1685  2123.19
 21.1906  2132.59
 21.2127  2151.33
 21.2348  2177.99
 21.2569  2204.27
 21.279  2250.17
 21.3011  2254.37
 21.3232  2261.12
 21.3453  2282.97
 21.3674  2316.65
 21.3895  2356.35
 21.4116  2381.37
 21.4338  2357.61
 21.4559  2282.51
 21.478  2207.35
 21.5001  2151.87
 21.5222  2114.61
 21.5443  2090.4
 21.5664  2073.39
 21.5885  2061.04
 21.6106  2051.24
 21.6327  2043.87
 21.6548  2038.77
 21.6769  2033.31
 21.6991  2029.49
 21.7212  2026.77
 21.7433  2023.43
 21.7654  2020.34
 21.7875  2018
 21.8096  2015.54
 21.8317  2014.31
 21.8538  2013.39
 21.8759  2010.88
 21.898  2007.81
 21.9201  2006.6
 21.9422  2005.14
 21.9643  2002.1
 21.9865  2001.08
 22.0086  1999.67
 22.0307  1996.68
 22.0528  1994.54
 22.0749  1993.52
 22.097  1991.3
 22.1191  1989.27
 22.1412  1988.19
 22.1633  1987.28
 22.1854  1985.65
 22.2075  1984.79
 22.2296  1983.96
 22.2518  1983.43
 22.2739  1984.72
 22.296  1986.27
 22.3181  1989.29
 22.3402  1989.31
 22.3623  1987.89
 22.3844  1984.19
 22.4065  1980.87
 22.4286  1975.49
 22.4507  1971.55
 22.4728  1967.49
 22.4949  1963.36
 22.5171  1960.02
 22.5392  1955.69
 22.5613  1952.19
 22.5834  1950.47
 22.6055  1947.27
 22.6276  1943.73
 22.6497  1943.4
 22.6718  1943.13
 22.6939  1941.46
 22.716  1937.96
 22.7381  1935.9
 22.7602  1934.14
 22.7823  1930.95
 22.8045  1929.64
 22.8266  1929.3
 22.8487  1926.24
 22.8708  1925.42
 22.8929  1923.35
 22.915  1920
 22.9371  1917.34
 22.9592  1917.52
 22.9813  1912.32
 23.0034  1911.92
 23.0255  1910.25
 23.0476  1907.48
 23.0698  1906.71
 23.0919  1905.36
 23.114  1900.9
 23.1361  1867.38
 23.1582  1760.46
 23.1803  1659.38
 23.2024  1588.31
 23.2245  1546.65
 23.2466  1507.4
 23.2687  1462.78
 23.2908  1418.95
 23.3129  1406.21
 23.335  1383.33
 23.3572  1359.61
 23.3793  1334.23
 23.4014  1313.42
 23.4235  1290.86
 23.4456  1271.13
 23.4677  1252.61
 23.4898  1233.96
 23.5119  1219.69
 23.534  1220.48
 23.5561  1213.22
 23.5782  1206.37
 23.6003  1197.49
 23.6225  1190.41
 23.6446  1180.56
 23.6667  1173.45
 23.6888  1163.65
 23.7109  1157.48
 23.733  1149.94
 23.7551  1144.58
 23.7772  1140.16
 23.7993  1137.51
 23.8214  1135.19
 23.8435  1133.24
 23.8656  1133.49
 23.8877  1132.17
 23.9099  1133.18
 23.932  1131.97
 23.9541  1131.59
 23.9762  1131.13
 23.9983  1131.2
 24.0204  1128.91
 24.0425  1129.1
 24.0646  1123.94
 24.0867  1121.67
 24.1088  1116.43
 24.1309  1108.27
 24.153  1100.34
 24.1752  1088.85
 24.1973  1078.26
 24.2194  1067.06
 24.2415  1051.78
 24.2636  1038.08
 24.2857  1023.22
 24.3078  1005.89
 24.3299  989.102
 24.352  971.294
 24.3741  951.506
 24.3962  929.61
 24.4183  906.811
 24.4405  893.442
 24.4626  870.221
 24.4847  841.219
 24.5068  815.908
 24.5289  778.291
 24.551  750.785
 24.5731  700.03
 24.5952  654.201
 24.6173  599.018
 24.6394  562.233
 24.6615  518.96
 24.6836  461.503
 24.7057  388.752
 24.7279  296.371
 24.75  148.208
 24.7721  25.5357
 24.7942  0.039456
 24.8163  0.0000000E+00
 24.8384  0.0000000E+00
 24.8605  0.0000000E+00
 24.8826  0.0000000E+00
 24.9047  0.0000000E+00
 24.9268  0.0000000E+00
 24.9489  0.0000000E+00
 24.971  0.0000000E+00
 24.9932  0.0000000E+00
 25.0153  0.0000000E+00
 25.0374  0.0000000E+00
 25.0595  0.0000000E+00
 25.0816  0.0000000E+00
 25.1037  0.0000000E+00
 25.1258  0.0000000E+00
 25.1479  0.0000000E+00
 25.17  0.0000000E+00
 25.1921  0.0000000E+00
 25.2142  0.0000000E+00
 25.2363  0.0000000E+00
 25.2584  0.0000000E+00
 25.2806  0.0000000E+00
 25.3027  0.0000000E+00
 25.3248  0.0000000E+00
 25.3469  0.0000000E+00
 25.369  0.0000000E+00
 25.3911  0.0000000E+00
 25.4132  0.0000000E+00
 25.4353  0.0000000E+00
 25.4574  0.0000000E+00
 25.4795  0.0000000E+00
 25.5016  0.0000000E+00
 25.5237  0.0000000E+00
 25.5459  0.0000000E+00
 25.568  0.0000000E+00
 25.5901  0.0000000E+00
 25.6122  0.0000000E+00
 25.6343  0.0000000E+00
 25.6564  0.0000000E+00
 25.6785  0.0000000E+00
 25.7006  0.0000000E+00
 25.7227  0.0000000E+00
 25.7448  0.0000000E+00
 25.7669  0.0000000E+00
 25.789  0.0000000E+00
 25.8112  0.0000000E+00
 25.8333  0.0000000E+00
 25.8554  0.0000000E+00
 25.8775  0.0000000E+00
 25.8996  0.0000000E+00
 25.9217  0.0000000E+00
 25.9438  0.0000000E+00
 25.9659  0.0000000E+00
 25.988  0.0000000E+00
 26.0101  0.0000000E+00
 26.0322  0.0000000E+00
 26.0543  0.0000000E+00
 26.0764  0.0000000E+00
 26.0986  0.0000000E+00
 26.1207  0.0000000E+00
 26.1428  0.0000000E+00
 26.1649  0.0000000E+00
 26.187  0.0000000E+00
 26.2091  0.0000000E+00
 26.2312  0.0000000E+00
 26.2533  0.0000000E+00
 26.2754  0.0000000E+00
 26.2975  0.0000000E+00
 26.3196  0.0000000E+00
 26.3417  0.0000000E+00
 26.3639  0.0000000E+00
 26.386  0.0000000E+00
 26.4081  0.0000000E+00
 26.4302  0.0000000E+00
 26.4523  0.0000000E+00
 26.4744  0.0000000E+00
 26.4965  0.0000000E+00
 26.5186  0.0000000E+00
 26.5407  0.0000000E+00
 26.5628  0.0000000E+00
 26.5849  0.0000000E+00
 26.607  0.0000000E+00
 26.6291  0.0000000E+00
 26.6513  0.0000000E+00
 26.6734  0.0000000E+00
 26.6955  0.0000000E+00
 26.7176  0.0000000E+00
 26.7397  0.0000000E+00
 26.7618  0.0000000E+00
 26.7839  0.0000000E+00
 26.806  0.0000000E+00
 26.8281  0.0000000E+00
 26.8502  0.0000000E+00
 26.8723  0.0000000E+00
 26.8944  0.0000000E+00
 26.9166  0.0000000E+00
 26.9387  0.0000000E+00
 26.9608  0.0000000E+00
 26.9829  0.0000000E+00
 27.005  0.0000000E+00
 27.0271  0.0000000E+00
 27.0492  0.0000000E+00
 27.0713  0.0000000E+00
 27.0934  0.0000000E+00
 27.1155  0.0000000E+00
 27.1376  0.0000000E+00
 27.1597  0.0000000E+00
 27.1818  0.0000000E+00
 27.204  0.0000000E+00
 27.2261  0.0000000E+00
 27.2482  0.0000000E+00
 27.2703  0.0000000E+00
 27.2924  0.0000000E+00
 27.3145  0.0000000E+00
 27.3366  0.0000000E+00
 27.3587  0.0000000E+00
 27.3808  0.0000000E+00
 27.4029  0.0000000E+00
 27.425  0.0000000E+00
 27.4471  0.0000000E+00
 27.4693  0.0000000E+00
 27.4914  0.0000000E+00
 27.5135  0.0000000E+00
 27.5356  0.0000000E+00
 27.5577  0.0000000E+00
 27.5798  0.0000000E+00
 27.6019  0.0000000E+00
 27.624  0.0000000E+00
 27.6461  0.0000000E+00
 27.6682  0.0000000E+00
 27.6903  0.0000000E+00
 27.7124  0.0000000E+00
 27.7345  0.0000000E+00
 27.7567  0.0000000E+00
 27.7788  0.0000000E+00
 27.8009  0.0000000E+00
 27.823  0.0000000E+00
 27.8451  0.0000000E+00
 27.8672  0.0000000E+00
 27.8893  0.0000000E+00
 27.9114  0.0000000E+00
 27.9335  0.0000000E+00
 27.9556  0.0000000E+00
 27.9777  0.0000000E+00
 27.9998  0.0000000E+00
 28.022  0.0000000E+00
 28.0441  0.0000000E+00
 28.0662  0.0000000E+00
 28.0883  0.0000000E+00
 28.1104  0.0000000E+00
 28.1325  0.0000000E+00
 28.1546  0.0000000E+00
 28.1767  0.0000000E+00
 28.1988  0.0000000E+00
 28.2209  0.0000000E+00
 28.243  0.0000000E+00
 28.2651  0.0000000E+00
 28.2873  0.0000000E+00
 28.3094  0.0000000E+00
 28.3315  0.0000000E+00
 28.3536  0.0000000E+00
 28.3757  0.0000000E+00
 28.3978  0.0000000E+00
 28.4199  0.0000000E+00
 28.442  0.0000000E+00
 28.4641  0.0000000E+00
 28.4862  0.0000000E+00
 28.5083  0.0000000E+00
 28.5304  0.0000000E+00
 28.5525  0.0000000E+00
 28.5747  0.0000000E+00
 28.5968  0.0000000E+00
 28.6189  0.0000000E+00
 28.641  0.0000000E+00
 28.6631  0.0000000E+00
 28.6852  0.0000000E+00
 28.7073  0.0000000E+00
 28.7294  0.0000000E+00
 28.7515  0.0000000E+00
 28.7736  0.0000000E+00
 28.7957  0.0000000E+00
 28.8178  0.0000000E+00
 28.84  0.0000000E+00
 28.8621  0.0000000E+00
 28.8842  0.0000000E+00
 28.9063  0.0000000E+00
 28.9284  0.0000000E+00
 28.9505  0.0000000E+00
 28.9726  0.0000000E+00
 28.9947  0.0000000E+00
 29.0168  0.0000000E+00
 29.0389  0.0000000E+00
 29.061  0.0000000E+00
 29.0831  0.0000000E+00
 29.1052  0.0000000E+00
 29.1274  0.0000000E+00
 29.1495  0.0000000E+00
 29.1716  0.0000000E+00
 29.1937  0.0000000E+00
 29.2158  0.0000000E+00
 29.2379  0.0000000E+00
 29.26  0.0000000E+00
 29.2821  0.0000000E+00
 29.3042  0.0000000E+00
 29.3263  0.0000000E+00
 29.3484  0.0000000E+00
 29.3705  0.0000000E+00
 29.3927  0.0000000E+00
 29.4148  0.0000000E+00
 29.4369  0.0000000E+00
 29.459  0.0000000E+00
 29.4811  0.0000000E+00
 29.5032  0.0000000E+00
 29.5253  0.0000000E+00
 29.5474  0.0000000E+00
 29.5695  0.0000000E+00
 29.5916  0.0000000E+00
 29.6137  0.0000000E+00
 29.6358  0.0000000E+00
 29.658  0.0000000E+00
 29.6801  0.0000000E+00
 29.7022  0.0000000E+00
 29.7243  0.0000000E+00
 29.7464  0.0000000E+00
 29.7685  0.0000000E+00
 29.7906  0.0000000E+00
 29.8127  0.0000000E+00
 29.8348  0.0000000E+00
 29.8569  0.0000000E+00
 29.879  0.0000000E+00
 29.9011  0.0000000E+00
 29.9232  0.0000000E+00
 29.9454  0.0000000E+00
 29.9675  0.0000000E+00
 29.9896  0.0000000E+00
 30.0117  0.0000000E+00
 30.0338  0.0000000E+00
 30.0559  0.0000000E+00
 30.078  0.0000000E+00
 30.1001  0.0000000E+00
 30.1222  0.0000000E+00
 30.1443  0.0000000E+00
 30.1664  0.0000000E+00
 30.1885  0.0000000E+00
 30.2107  0.0000000E+00
 30.2328  0.0000000E+00
 30.2549  0.0000000E+00
 30.277  0.0000000E+00
 30.2991  0.0000000E+00
 30.3212  0.0000000E+00
 30.3433  0.0000000E+00
 30.3654  0.0000000E+00
 30.3875  0.0000000E+00
 30.4096  0.0000000E+00
 30.4317  0.0000000E+00
 30.4538  0.0000000E+00
 30.4759  0.0000000E+00
 30.4981  0.0000000E+00
 30.5202  0.0000000E+00
 30.5423  0.0000000E+00
 30.5644  0.0000000E+00
 30.5865  0.0000000E+00
 30.6086  0.0000000E+00
 30.6307  0.0000000E+00
 30.6528  0.0000000E+00
 30.6749  0.0000000E+00
 30.697  0.0000000E+00
 30.7191  0.0000000E+00
 30.7412  0.0000000E+00
 30.7634  0.0000000E+00
 30.7855  0.0000000E+00
 30.8076  0.0000000E+00
 30.8297  0.0000000E+00
 30.8518  0.0000000E+00
 30.8739  0.0000000E+00
 30.896  0.0000000E+00
 30.9181  0.0000000E+00
 30.9402  0.0000000E+00
 30.9623  0.0000000E+00
 30.9844  0.0000000E+00
 31.0065  0.0000000E+00
 31.0286  0.0000000E+00
 31.0508  0.0000000E+00
 31.0729  0.0000000E+00
 31.095  0.0000000E+00
 31.1171  0.0000000E+00
 31.1392  0.0000000E+00
 31.1613  0.0000000E+00
 31.1834  0.0000000E+00
 31.2055  0.0000000E+00
 31.2276  0.0000000E+00
 31.2497  0.0000000E+00
 31.2718  0.0000000E+00
 31.2939  0.0000000E+00
 31.3161  0.0000000E+00
 31.3382  0.0000000E+00
 31.3603  0.0000000E+00
 31.3824  0.0000000E+00
 31.4045  0.0000000E+00
 31.4266  0.0000000E+00
 31.4487  0.0000000E+00
 31.4708  0.0000000E+00
 31.4929  0.0000000E+00
 31.515  0.0000000E+00
 31.5371  0.0000000E+00
 31.5592  0.0000000E+00
 31.5814  0.0000000E+00
 31.6035  0.0000000E+00
 31.6256  0.0000000E+00
 31.6477  0.0000000E+00
 31.6698  0.0000000E+00
 31.6919  0.0000000E+00
 31.714  0.0000000E+00
 31.7361  0.0000000E+00
 31.7582  0.0000000E+00
 31.7803  0.0000000E+00
 31.8024  0.0000000E+00
 31.8245  0.0000000E+00
 31.8466  0.0000000E+00
 31.8688  0.0000000E+00
 31.8909  0.0000000E+00
 31.913  0.0000000E+00
 31.9351  0.0000000E+00
 31.9572  0.0000000E+00
 31.9793  0.0000000E+00
 32.0014  0.0000000E+00
 32.0235  0.0000000E+00
 32.0456  0.0000000E+00
 32.0677  0.0000000E+00
 32.0898  0.0000000E+00
 32.1119  0.0000000E+00
 32.1341  0.0000000E+00
 32.1562  0.0000000E+00
 32.1783  0.0000000E+00
 32.2004  0.0000000E+00
 32.2225  0.0000000E+00
 32.2446  0.0000000E+00
 32.2667  0.0000000E+00
 32.2888  0.0000000E+00
 32.3109  0.0000000E+00
 32.333  0.0000000E+00
 32.3551  0.0000000E+00
 32.3772  0.0000000E+00
 32.3993  0.0000000E+00
 32.4215  0.0000000E+00
 32.4436  0.0000000E+00
 32.4657  0.0000000E+00
 32.4878  0.0000000E+00
 32.5099  0.0000000E+00
 32.532  0.0000000E+00
 32.5541  0.0000000E+00
 32.5762  0.0000000E+00
 32.5983  0.0000000E+00
 32.6204  0.0000000E+00
 32.6425  0.0000000E+00
 32.6646  0.0000000E+00
 32.6868  0.0000000E+00
 32.7089  0.0000000E+00
 32.731  0.0000000E+00