File: BA_9.chi
D:\DATA\UserData\CuiTian20190403\\CWH\BA\BA_9.tif: 2-theta Scan
2-Theta Angle (Degrees)
Intensity
       1481
 0.011054  35.6156
 0.0331621  36.9431
 0.0552701  40.4251
 0.0773782  42.6768
 0.0994862  42.7952
 0.121594  42.2683
 0.143702  42.8057
 0.16581  42.4901
 0.187918  42.277
 0.210026  43.2939
 0.232135  43.4551
 0.254243  41.9953
 0.276351  41.8427
 0.298459  41.6999
 0.320567  41.8074
 0.342675  42.1391
 0.364783  42.4056
 0.386891  42.7072
 0.408999  42.4155
 0.431107  42.5391
 0.453215  43.3602
 0.475323  44.0739
 0.497431  43.4535
 0.519539  43.2235
 0.541647  43.3958
 0.563755  43.0857
 0.585863  42.7144
 0.607971  43.0979
 0.630079  43.3182
 0.652188  42.4914
 0.674296  42.2405
 0.696404  43.3043
 0.718512  43.6868
 0.74062  43.9684
 0.762728  43.8414
 0.784836  43.9127
 0.806944  44.4013
 0.829052  43.6843
 0.85116  43.6538
 0.873268  44.0037
 0.895376  44.2804
 0.917484  43.9331
 0.939592  43.716
 0.9617  44.0656
 0.983808  44.154
 1.00592  44.439
 1.02802  44.4343
 1.05013  44.0208
 1.07224  44.0045
 1.09435  44.0562
 1.11646  44.2976
 1.13856  44.7414
 1.16067  45.1537
 1.18278  45.8704
 1.20489  46.0775
 1.227  45.7992
 1.2491  45.8964
 1.27121  46.255
 1.29332  46.4002
 1.31543  46.5702
 1.33754  46.6404
 1.35965  46.8337
 1.38175  46.602
 1.40386  46.5178
 1.42597  46.8429
 1.44808  47.3468
 1.47019  47.3059
 1.49229  47.2347
 1.5144  47.2704
 1.53651  47.3037
 1.55862  47.6156
 1.58073  48.4483
 1.60283  48.6798
 1.62494  49.0361
 1.64705  49.4281
 1.66916  50.3858
 1.69127  50.8811
 1.71337  51.1742
 1.73548  51.6485
 1.75759  52.44
 1.7797  53.6807
 1.80181  55.0417
 1.82391  56.6562
 1.84602  58.9144
 1.86813  64.043
 1.89024  75.0508
 1.91235  97.8284
 1.93445  134.204
 1.95656  178.237
 1.97867  223.671
 2.00078  266.928
 2.02289  308.43
 2.04499  351.625
 2.0671  394.195
 2.08921  443.9
 2.11132  499.702
 2.13343  563.706
 2.15553  631.13
 2.17764  694.361
 2.19975  746.535
 2.22186  791.842
 2.24397  831.37
 2.26608  867.748
 2.28818  905.896
 2.31029  940.136
 2.3324  973.935
 2.35451  1006.46
 2.37662  1037.87
 2.39872  1070.79
 2.42083  1104.43
 2.44294  1136.81
 2.46505  1164.91
 2.48716  1196.32
 2.50926  1224.45
 2.53137  1250.24
 2.55348  1275.86
 2.57559  1302.21
 2.5977  1325.35
 2.6198  1350.62
 2.64191  1375.9
 2.66402  1398.31
 2.68613  1424.5
 2.70824  1448.34
 2.73034  1471.02
 2.75245  1494.3
 2.77456  1518.33
 2.79667  1540.56
 2.81878  1560.35
 2.84088  1578.26
 2.86299  1594.82
 2.8851  1616.69
 2.90721  1642.34
 2.92932  1660.35
 2.95142  1677.24
 2.97353  1693.16
 2.99564  1709
 3.01775  1726.86
 3.03986  1744.39
 3.06196  1759.11
 3.08407  1774.58
 3.10618  1789.37
 3.12829  1803.6
 3.1504  1816.98
 3.17251  1829.96
 3.19461  1843.08
 3.21672  1855.36
 3.23883  1867.92
 3.26094  1880.27
 3.28305  1892.11
 3.30515  1905.86
 3.32726  1915.27
 3.34937  1925.7
 3.37148  1937.38
 3.39359  1949.94
 3.41569  1959.72
 3.4378  1967.5
 3.45991  1978.03
 3.48202  1990.92
 3.50413  2004.75
 3.52623  2015.43
 3.54834  2025.85
 3.57045  2035.29
 3.59256  2043.36
 3.61467  2050.76
 3.63677  2060.04
 3.65888  2069.76
 3.68099  2077.5
 3.7031  2085.81
 3.72521  2092.83
 3.74731  2097.24
 3.76942  2102.37
 3.79153  2107.98
 3.81364  2117.83
 3.83575  2125.25
 3.85785  2129.45
 3.87996  2137.25
 3.90207  2147.64
 3.92418  2155.5
 3.94629  2160.09
 3.9684  2164.82
 3.9905  2172.34
 4.01261  2178.42
 4.03472  2186.16
 4.05683  2192.49
 4.07894  2195.53
 4.10104  2198.7
 4.12315  2202.11
 4.14526  2205.35
 4.16737  2207.55
 4.18948  2213.99
 4.21158  2219.09
 4.23369  2221.13
 4.2558  2221.76
 4.27791  2226.26
 4.30002  2230.1
 4.32212  2233.44
 4.34423  2238.56
 4.36634  2241.29
 4.38845  2240.98
 4.41056  2243.63
 4.43266  2246.99
 4.45477  2250.67
 4.47688  2254.51
 4.49899  2256.84
 4.5211  2257.82
 4.5432  2261.78
 4.56531  2263.93
 4.58742  2264.81
 4.60953  2266.5
 4.63164  2266.47
 4.65374  2267.05
 4.67585  2268.08
 4.69796  2271.46
 4.72007  2273.53
 4.74218  2272.97
 4.76429  2275.28
 4.78639  2274.47
 4.8085  2275.13
 4.83061  2276.3
 4.85272  2276.7
 4.87483  2278.17
 4.89693  2279.29
 4.91904  2280.96
 4.94115  2282.19
 4.96326  2282.52
 4.98537  2283.11
 5.00747  2280.63
 5.02958  2281.45
 5.05169  2283.17
 5.0738  2283.89
 5.09591  2284.76
 5.11801  2286.04
 5.14012  2286.11
 5.16223  2286.75
 5.18434  2287.43
 5.20645  2286.29
 5.22855  2284.32
 5.25066  2281.36
 5.27277  2280.54
 5.29488  2282.74
 5.31699  2283.03
 5.33909  2282.06
 5.3612  2282.35
 5.38331  2282.47
 5.40542  2282.63
 5.42753  2279.85
 5.44963  2279.26
 5.47174  2280.8
 5.49385  2282.46
 5.51596  2282
 5.53807  2281.5
 5.56017  2281.07
 5.58228  2278.89
 5.60439  2277.46
 5.6265  2278.76
 5.64861  2278.37
 5.67072  2276.26
 5.69282  2278.78
 5.71493  2282
 5.73704  2282.38
 5.75915  2280.71
 5.78126  2279.27
 5.80336  2277.39
 5.82547  2277.26
 5.84758  2277.74
 5.86969  2277.18
 5.8918  2275.52
 5.9139  2273.08
 5.93601  2272.54
 5.95812  2273.46
 5.98023  2272.51
 6.00234  2271.32
 6.02444  2272.82
 6.04655  2272.25
 6.06866  2270.36
 6.09077  2268.88
 6.11288  2266.51
 6.13498  2265.91
 6.15709  2266
 6.1792  2265.67
 6.20131  2265.99
 6.22342  2264.97
 6.24552  2264.25
 6.26763  2264.5
 6.28974  2264.89
 6.31185  2264.07
 6.33396  2262.69
 6.35606  2264.65
 6.37817  2269.12
 6.40028  2274.72
 6.42239  2275.28
 6.4445  2268.12
 6.4666  2262.28
 6.48871  2258.74
 6.51082  2260.73
 6.53293  2260.79
 6.55504  2258.46
 6.57715  2255.03
 6.59925  2253.01
 6.62136  2252.23
 6.64347  2250.66
 6.66558  2249.91
 6.68769  2250.6
 6.70979  2251.34
 6.7319  2250.72
 6.75401  2248.01
 6.77612  2245.72
 6.79823  2244.31
 6.82033  2242.54
 6.84244  2243
 6.86455  2242.9
 6.88666  2240.3
 6.90877  2238.22
 6.93087  2239.24
 6.95298  2239.92
 6.97509  2241.37
 6.9972  2241.01
 7.01931  2239.59
 7.04141  2238.06
 7.06352  2238.05
 7.08563  2235.79
 7.10774  2233.95
 7.12985  2232.33
 7.15195  2230.96
 7.17406  2229.15
 7.19617  2230.56
 7.21828  2233.9
 7.24039  2232.38
 7.26249  2228.12
 7.2846  2227.78
 7.30671  2227.22
 7.32882  2226.12
 7.35093  2226.02
 7.37303  2226.49
 7.39514  2226.5
 7.41725  2225.58
 7.43936  2226.45
 7.46147  2224.05
 7.48358  2221.78
 7.50568  2219.58
 7.52779  2221.22
 7.5499  2221.25
 7.57201  2219.96
 7.59412  2218.34
 7.61622  2217.02
 7.63833  2217.19
 7.66044  2219.52
 7.68255  2220.14
 7.70466  2219.82
 7.72676  2218.9
 7.74887  2217.79
 7.77098  2218.42
 7.79309  2217.98
 7.8152  2214.94
 7.8373  2212.65
 7.85941  2212.73
 7.88152  2212.87
 7.90363  2213.21
 7.92574  2213.78
 7.94784  2213.25
 7.96995  2212.1
 7.99206  2211.93
 8.01417  2211.09
 8.03628  2209.71
 8.05838  2208.69
 8.08049  2208.57
 8.1026  2210.07
 8.12471  2210.3
 8.14682  2209.14
 8.16893  2208.85
 8.19103  2208.93
 8.21314  2207.98
 8.23525  2207.13
 8.25736  2207.66
 8.27946  2207.6
 8.30157  2206.52
 8.32368  2206.8
 8.34579  2207.6
 8.3679  2209.01
 8.39001  2209.36
 8.41211  2208.11
 8.43422  2207.57
 8.45633  2210.03
 8.47844  2211.48
 8.50055  2211.25
 8.52265  2212.25
 8.54476  2215.42
 8.56687  2220.28
 8.58898  2223.73
 8.61109  2228.31
 8.63319  2236.04
 8.6553  2245.91
 8.67741  2254.87
 8.69952  2259.09
 8.72163  2256.87
 8.74373  2250.27
 8.76584  2241.07
 8.78795  2232.4
 8.81006  2226.79
 8.83217  2224.75
 8.85427  2221.72
 8.87638  2218.81
 8.89849  2216
 8.9206  2213.42
 8.94271  2215.02
 8.96482  2218.39
 8.98692  2227.98
 9.00903  2252.57
 9.03114  2278.88
 9.05325  2297.32
 9.07535  2306.13
 9.09746  2295.22
 9.11957  2261.71
 9.14168  2235.66
 9.16379  2223.86
 9.1859  2218.16
 9.208  2214.54
 9.23011  2211.81
 9.25222  2211.25
 9.27433  2212.88
 9.29644  2213.2
 9.31854  2211.15
 9.34065  2208.65
 9.36276  2207.54
 9.38487  2209.15
 9.40698  2212.12
 9.42908  2213.6
 9.45119  2233.99
 9.4733  2304.82
 9.49541  2319.45
 9.51752  2327.01
 9.53962  2322.34
 9.56173  2241.82
 9.58384  2220.53
 9.60595  2220.28
 9.62806  2219.97
 9.65016  2217.98
 9.67227  2216.08
 9.69438  2216.14
 9.71649  2216.71
 9.7386  2217.82
 9.7607  2219.56
 9.78281  2221.89
 9.80492  2224.78
 9.82703  2228.17
 9.84914  2233.5
 9.87124  2240.5
 9.89335  2248.77
 9.91546  2256.21
 9.93757  2262.34
 9.95968  2269.36
 9.98178  2276.17
 10.0039  2284.53
 10.026  2287.92
 10.0481  2283.51
 10.0702  2276.25
 10.0923  2270.59
 10.1144  2272.14
 10.1365  2274.97
 10.1586  2268.28
 10.1808  2254.65
 10.2029  2242.75
 10.225  2235.8
 10.2471  2232.75
 10.2692  2233.84
 10.2913  2235.61
 10.3134  2235.27
 10.3355  2233.89
 10.3576  2232.99
 10.3797  2234.23
 10.4018  2236.92
 10.4239  2237.72
 10.4461  2237.64
 10.4682  2240.56
 10.4903  2245.07
 10.5124  2253.09
 10.5345  2302.74
 10.5566  2336.1
 10.5787  2310.42
 10.6008  2272.49
 10.6229  2263.28
 10.645  2263.05
 10.6671  2264.67
 10.6892  2267.3
 10.7113  2270.36
 10.7335  2272.68
 10.7556  2275.64
 10.7777  2280.06
 10.7998  2281.24
 10.8219  2284.26
 10.844  2288.04
 10.8661  2304.96
 10.8882  2393.7
 10.9103  2487.97
 10.9324  2531.08
 10.9545  2634.27
 10.9766  2823.06
 10.9988  3089.08
 11.0209  3413.75
 11.043  3684.9
 11.0651  3896.51
 11.0872  4048.46
 11.1093  4064.4
 11.1314  3935.1
 11.1535  3587.57
 11.1756  3212.12
 11.1977  2934.14
 11.2198  2756.65
 11.2419  2590.24
 11.2641  2463.85
 11.2862  2387.23
 11.3083  2336.66
 11.3304  2321.38
 11.3525  2312.45
 11.3746  2307.19
 11.3967  2304.04
 11.4188  2301.37
 11.4409  2299.65
 11.463  2299.42
 11.4851  2302.39
 11.5072  2306.14
 11.5293  2309.97
 11.5515  2315.59
 11.5736  2321.49
 11.5957  2330.65
 11.6178  2346.15
 11.6399  2363.13
 11.662  2378.82
 11.6841  2398.08
 11.7062  2417.36
 11.7283  2432.49
 11.7504  2446.27
 11.7725  2454.82
 11.7946  2448.73
 11.8168  2429.85
 11.8389  2406.82
 11.861  2397.54
 11.8831  2425.95
 11.9052  2407.61
 11.9273  2346.78
 11.9494  2317.51
 11.9715  2310.68
 11.9936  2308.41
 12.0157  2306.06
 12.0378  2303.99
 12.0599  2303.91
 12.0821  2304.17
 12.1042  2305.28
 12.1263  2306.89
 12.1484  2309.62
 12.1705  2311.34
 12.1926  2313
 12.2147  2315.08
 12.2368  2319.09
 12.2589  2323.75
 12.281  2330.78
 12.3031  2340.4
 12.3252  2350.73
 12.3473  2361.73
 12.3695  2376.56
 12.3916  2391.66
 12.4137  2401.98
 12.4358  2401.6
 12.4579  2391.02
 12.48  2378.85
 12.5021  2370.8
 12.5242  2367.06
 12.5463  2365.94
 12.5684  2365.31
 12.5905  2369.61
 12.6126  2377.48
 12.6348  2386.96
 12.6569  2401.39
 12.679  2423.13
 12.7011  2466.77
 12.7232  2528.62
 12.7453  2572.13
 12.7674  2602.07
 12.7895  2649.62
 12.8116  2716.16
 12.8337  2796.13
 12.8558  2800.18
 12.8779  2693.6
 12.9  2542
 12.9222  2456.34
 12.9443  2408.58
 12.9664  2383.76
 12.9885  2368.93
 13.0106  2361.52
 13.0327  2358.43
 13.0548  2356.6
 13.0769  2354.58
 13.099  2352.17
 13.1211  2350.13
 13.1432  2349.81
 13.1653  2350.58
 13.1875  2350.55
 13.2096  2350.57
 13.2317  2350.9
 13.2538  2351.49
 13.2759  2353.29
 13.298  2353.96
 13.3201  2354.14
 13.3422  2355.13
 13.3643  2354.14
 13.3864  2352.37
 13.4085  2349.42
 13.4306  2349.2
 13.4527  2350.57
 13.4749  2350.41
 13.497  2348.03
 13.5191  2345.71
 13.5412  2345.79
 13.5633  2345.75
 13.5854  2343.62
 13.6075  2343.52
 13.6296  2343.4
 13.6517  2344.65
 13.6738  2346.46
 13.6959  2348.44
 13.718  2351.03
 13.7402  2355.21
 13.7623  2360.51
 13.7844  2366.2
 13.8065  2371.14
 13.8286  2377.48
 13.8507  2384.96
 13.8728  2392.52
 13.8949  2401.31
 13.917  2409.4
 13.9391  2412.1
 13.9612  2413.08
 13.9833  2411.14
 14.0054  2406.23
 14.0276  2400.64
 14.0497  2395.52
 14.0718  2389.57
 14.0939  2383.34
 14.116  2377.72
 14.1381  2374.91
 14.1602  2371.5
 14.1823  2368.4
 14.2044  2369.39
 14.2265  2371.85
 14.2486  2381.19
 14.2707  2394.08
 14.2929  2401.11
 14.315  2396.94
 14.3371  2387.84
 14.3592  2384.51
 14.3813  2384.11
 14.4034  2382.22
 14.4255  2376.51
 14.4476  2371.97
 14.4697  2369.65
 14.4918  2369.1
 14.5139  2367.85
 14.536  2366.7
 14.5582  2367.63
 14.5803  2367.83
 14.6024  2368.4
 14.6245  2368.69
 14.6466  2368.31
 14.6687  2369.15
 14.6908  2370.33
 14.7129  2372.35
 14.735  2371.64
 14.7571  2372.13
 14.7792  2373.72
 14.8013  2374.44
 14.8234  2374.57
 14.8456  2374.87
 14.8677  2374.74
 14.8898  2374.01
 14.9119  2374.33
 14.934  2376.61
 14.9561  2378.41
 14.9782  2378.05
 15.0003  2379.39
 15.0224  2381.29
 15.0445  2382.27
 15.0666  2382.95
 15.0887  2383.6
 15.1109  2384.13
 15.133  2385.22
 15.1551  2385.27
 15.1772  2384.98
 15.1993  2385.14
 15.2214  2385.15
 15.2435  2386.59
 15.2656  2387.66
 15.2877  2387.84
 15.3098  2388.72
 15.3319  2389.31
 15.354  2391.16
 15.3761  2394.29
 15.3983  2395.46
 15.4204  2396.28
 15.4425  2396.31
 15.4646  2396.87
 15.4867  2400.5
 15.5088  2404.51
 15.5309  2406.47
 15.553  2409.49
 15.5751  2414.64
 15.5972  2420.6
 15.6193  2427.96
 15.6414  2433.32
 15.6636  2435.88
 15.6857  2434.23
 15.7078  2430.27
 15.7299  2428.13
 15.752  2427.96
 15.7741  2427.81
 15.7962  2426.53
 15.8183  2428.14
 15.8404  2429.26
 15.8625  2430.5
 15.8846  2431.01
 15.9067  2433.4
 15.9289  2435.24
 15.951  2435.22
 15.9731  2434.78
 15.9952  2432.45
 16.0173  2429.04
 16.0394  2425.18
 16.0615  2420.41
 16.0836  2415.9
 16.1057  2413.63
 16.1278  2412.13
 16.1499  2409.38
 16.172  2409.4
 16.1941  2410.36
 16.2163  2409.4
 16.2384  2410.53
 16.2605  2409.83
 16.2826  2407.8
 16.3047  2406.94
 16.3268  2405.65
 16.3489  2404.81
 16.371  2404.41
 16.3931  2404.57
 16.4152  2405.53
 16.4373  2406.11
 16.4594  2404.92
 16.4816  2403.46
 16.5037  2403.27
 16.5258  2403.25
 16.5479  2403.28
 16.57  2401.57
 16.5921  2400.17
 16.6142  2401.04
 16.6363  2402.81
 16.6584  2402.93
 16.6805  2402.38
 16.7026  2402.1
 16.7247  2401.37
 16.7468  2400.69
 16.769  2398.45
 16.7911  2398.34
 16.8132  2397.13
 16.8353  2395.21
 16.8574  2395.26
 16.8795  2393.62
 16.9016  2393.07
 16.9237  2392.21
 16.9458  2391.5
 16.9679  2390.81
 16.99  2390.99
 17.0121  2390.5
 17.0343  2390.59
 17.0564  2390.79
 17.0785  2390.59
 17.1006  2392.09
 17.1227  2393.78
 17.1448  2393.85
 17.1669  2393.35
 17.189  2395.55
 17.2111  2398.1
 17.2332  2401.7
 17.2553  2404.05
 17.2774  2410.46
 17.2995  2418.84
 17.3217  2427.87
 17.3438  2434.83
 17.3659  2440.3
 17.388  2444.25
 17.4101  2443.64
 17.4322  2438.74
 17.4543  2434.41
 17.4764  2429.8
 17.4985  2425.65
 17.5206  2421.7
 17.5427  2416.02
 17.5648  2406.1
 17.587  2396.4
 17.6091  2389.63
 17.6312  2385.36
 17.6533  2381.64
 17.6754  2377.25
 17.6975  2375.1
 17.7196  2373.38
 17.7417  2370.45
 17.7638  2369.08
 17.7859  2367.39
 17.808  2367.56
 17.8301  2367.16
 17.8523  2365.82
 17.8744  2367.2
 17.8965  2367.07
 17.9186  2367.47
 17.9407  2367.8
 17.9628  2367.23
 17.9849  2369.27
 18.007  2373.45
 18.0291  2380.05
 18.0512  2391.66
 18.0733  2412.19
 18.0954  2442.85
 18.1175  2479.43
 18.1397  2519.51
 18.1618  2543.29
 18.1839  2534.61
 18.206  2496.39
 18.2281  2451.57
 18.2502  2418.04
 18.2723  2393.55
 18.2944  2373.83
 18.3165  2359.4
 18.3386  2349.61
 18.3607  2340.55
 18.3828  2333.04
 18.405  2325.34
 18.4271  2317.24
 18.4492  2311.57
 18.4713  2307.27
 18.4934  2302.87
 18.5155  2300.41
 18.5376  2296.42
 18.5597  2293.45
 18.5818  2290.46
 18.6039  2288.56
 18.626  2288.64
 18.6481  2289.88
 18.6702  2291.09
 18.6924  2289.82
 18.7145  2285.7
 18.7366  2281.26
 18.7587  2276.44
 18.7808  2274.26
 18.8029  2273.76
 18.825  2274.05
 18.8471  2272.63
 18.8692  2270.54
 18.8913  2267.18
 18.9134  2267.17
 18.9355  2265.55
 18.9577  2259.41
 18.9798  2253.39
 19.0019  2249.78
 19.024  2244.51
 19.0461  2238.48
 19.0682  2234.02
 19.0903  2228.6
 19.1124  2224.69
 19.1345  2220.97
 19.1566  2217.01
 19.1787  2215.12
 19.2008  2214.12
 19.223  2214.86
 19.2451  2214.07
 19.2672  2212.82
 19.2893  2210.99
 19.3114  2210.05
 19.3335  2206.27
 19.3556  2200.23
 19.3777  2195.55
 19.3998  2191.58
 19.4219  2188.47
 19.444  2184.69
 19.4661  2181.08
 19.4882  2180.47
 19.5104  2177.44
 19.5325  2173.95
 19.5546  2170.5
 19.5767  2168.57
 19.5988  2166.04
 19.6209  2163.31
 19.643  2161.51
 19.6651  2159.55
 19.6872  2157.18
 19.7093  2153.32
 19.7314  2149.47
 19.7535  2148.22
 19.7757  2147.18
 19.7978  2145.34
 19.8199  2142.81
 19.842  2140.11
 19.8641  2137.47
 19.8862  2136.63
 19.9083  2135.1
 19.9304  2132.57
 19.9525  2131.96
 19.9746  2130.76
 19.9967  2128.74
 20.0188  2125.66
 20.0409  2124.28
 20.0631  2123.79
 20.0852  2121.23
 20.1073  2119.4
 20.1294  2120.11
 20.1515  2120.57
 20.1736  2120.25
 20.1957  2119.32
 20.2178  2118.16
 20.2399  2117.17
 20.262  2116.25
 20.2841  2115.32
 20.3062  2113.36
 20.3284  2111.53
 20.3505  2114.99
 20.3726  2122.7
 20.3947  2138.42
 20.4168  2157.54
 20.4389  2153.93
 20.461  2132.24
 20.4831  2103.39
 20.5052  2094.94
 20.5273  2088.96
 20.5494  2083.79
 20.5715  2080.18
 20.5936  2078.37
 20.6158  2076.64
 20.6379  2073.93
 20.66  2071.83
 20.6821  2070.46
 20.7042  2069.45
 20.7263  2067.14
 20.7484  2064.61
 20.7705  2063.09
 20.7926  2061.82
 20.8147  2060.85
 20.8368  2059.81
 20.8589  2058.12
 20.8811  2056.68
 20.9032  2057.89
 20.9253  2059.58
 20.9474  2059.98
 20.9695  2060.57
 20.9916  2062.23
 21.0137  2064.15
 21.0358  2066.34
 21.0579  2070.58
 21.08  2077.74
 21.1021  2083.98
 21.1242  2091.18
 21.1464  2100.92
 21.1685  2109.36
 21.1906  2118.15
 21.2127  2134.17
 21.2348  2150.03
 21.2569  2159.98
 21.279  2175.28
 21.3011  2211.59
 21.3232  2264.48
 21.3453  2334.18
 21.3674  2341.18
 21.3895  2293.2
 21.4116  2209.89
 21.4338  2157.29
 21.4559  2117.08
 21.478  2089.4
 21.5001  2068.15
 21.5222  2051.1
 21.5443  2038.29
 21.5664  2029.07
 21.5885  2020.52
 21.6106  2012.31
 21.6327  2006.74
 21.6548  2003.53
 21.6769  2000.04
 21.6991  1996.03
 21.7212  1992.12
 21.7433  1989.92
 21.7654  1986.96
 21.7875  1985.29
 21.8096  1983.77
 21.8317  1982.28
 21.8538  1980.5
 21.8759  1977.24
 21.898  1974.15
 21.9201  1972.64
 21.9422  1971.2
 21.9643  1968.25
 21.9865  1967.3
 22.0086  1965.76
 22.0307  1964.25
 22.0528  1963.7
 22.0749  1961.65
 22.097  1959.05
 22.1191  1958.4
 22.1412  1958.28
 22.1633  1957.58
 22.1854  1957.96
 22.2075  1958.59
 22.2296  1958.74
 22.2518  1959.2
 22.2739  1960.55
 22.296  1963.41
 22.3181  1967.02
 22.3402  1962.8
 22.3623  1956.97
 22.3844  1949.48
 22.4065  1942.14
 22.4286  1936.14
 22.4507  1933.58
 22.4728  1930.03
 22.4949  1926.37
 22.5171  1923.68
 22.5392  1922.38
 22.5613  1920.05
 22.5834  1918.78
 22.6055  1917.68
 22.6276  1914.9
 22.6497  1912.57
 22.6718  1911.21
 22.6939  1909.37
 22.716  1907.7
 22.7381  1905.8
 22.7602  1903.15
 22.7823  1900.81
 22.8045  1899.76
 22.8266  1899.68
 22.8487  1895.84
 22.8708  1895.36
 22.8929  1893.21
 22.915  1888.9
 22.9371  1885.43
 22.9592  1886.17
 22.9813  1882.42
 23.0034  1881.44
 23.0255  1878.91
 23.0476  1875.9
 23.0698  1875.24
 23.0919  1874.57
 23.114  1870.93
 23.1361  1837.87
 23.1582  1732.67
 23.1803  1633.38
 23.2024  1562.13
 23.2245  1520.24
 23.2466  1480.45
 23.2687  1435.28
 23.2908  1392.44
 23.3129  1381.11
 23.335  1360.31
 23.3572  1337.37
 23.3793  1313.52
 23.4014  1293.52
 23.4235  1270.97
 23.4456  1251.74
 23.4677  1233.84
 23.4898  1215.6
 23.5119  1200.69
 23.534  1201.36
 23.5561  1193.66
 23.5782  1187.72
 23.6003  1179.32
 23.6225  1172.65
 23.6446  1163.3
 23.6667  1156.02
 23.6888  1146.37
 23.7109  1140.57
 23.733  1132.95
 23.7551  1127.91
 23.7772  1124.43
 23.7993  1121.89
 23.8214  1118.25
 23.8435  1115.78
 23.8656  1116.37
 23.8877  1114.02
 23.9099  1114.27
 23.932  1113.35
 23.9541  1113.49
 23.9762  1113.34
 23.9983  1113.35
 24.0204  1111.44
 24.0425  1110.99
 24.0646  1106.65
 24.0867  1105.37
 24.1088  1100.75
 24.1309  1093.14
 24.153  1085.63
 24.1752  1074.11
 24.1973  1061.88
 24.2194  1049.83
 24.2415  1035.06
 24.2636  1021.18
 24.2857  1007.19
 24.3078  991.327
 24.3299  974.305
 24.352  956.102
 24.3741  935.985
 24.3962  913.73
 24.4183  891.054
 24.4405  877.994
 24.4626  855.244
 24.4847  827.309
 24.5068  802.899
 24.5289  766.156
 24.551  738.971
 24.5731  689.166
 24.5952  643.914
 24.6173  588.969
 24.6394  552.307
 24.6615  509.82
 24.6836  453.871
 24.7057  382.024
 24.7279  291.044
 24.75  145.744
 24.7721  25.2439
 24.7942  0.0390658
 24.8163  0.0000000E+00
 24.8384  0.0000000E+00
 24.8605  0.0000000E+00
 24.8826  0.0000000E+00
 24.9047  0.0000000E+00
 24.9268  0.0000000E+00
 24.9489  0.0000000E+00
 24.971  0.0000000E+00
 24.9932  0.0000000E+00
 25.0153  0.0000000E+00
 25.0374  0.0000000E+00
 25.0595  0.0000000E+00
 25.0816  0.0000000E+00
 25.1037  0.0000000E+00
 25.1258  0.0000000E+00
 25.1479  0.0000000E+00
 25.17  0.0000000E+00
 25.1921  0.0000000E+00
 25.2142  0.0000000E+00
 25.2363  0.0000000E+00
 25.2584  0.0000000E+00
 25.2806  0.0000000E+00
 25.3027  0.0000000E+00
 25.3248  0.0000000E+00
 25.3469  0.0000000E+00
 25.369  0.0000000E+00
 25.3911  0.0000000E+00
 25.4132  0.0000000E+00
 25.4353  0.0000000E+00
 25.4574  0.0000000E+00
 25.4795  0.0000000E+00
 25.5016  0.0000000E+00
 25.5237  0.0000000E+00
 25.5459  0.0000000E+00
 25.568  0.0000000E+00
 25.5901  0.0000000E+00
 25.6122  0.0000000E+00
 25.6343  0.0000000E+00
 25.6564  0.0000000E+00
 25.6785  0.0000000E+00
 25.7006  0.0000000E+00
 25.7227  0.0000000E+00
 25.7448  0.0000000E+00
 25.7669  0.0000000E+00
 25.789  0.0000000E+00
 25.8112  0.0000000E+00
 25.8333  0.0000000E+00
 25.8554  0.0000000E+00
 25.8775  0.0000000E+00
 25.8996  0.0000000E+00
 25.9217  0.0000000E+00
 25.9438  0.0000000E+00
 25.9659  0.0000000E+00
 25.988  0.0000000E+00
 26.0101  0.0000000E+00
 26.0322  0.0000000E+00
 26.0543  0.0000000E+00
 26.0764  0.0000000E+00
 26.0986  0.0000000E+00
 26.1207  0.0000000E+00
 26.1428  0.0000000E+00
 26.1649  0.0000000E+00
 26.187  0.0000000E+00
 26.2091  0.0000000E+00
 26.2312  0.0000000E+00
 26.2533  0.0000000E+00
 26.2754  0.0000000E+00
 26.2975  0.0000000E+00
 26.3196  0.0000000E+00
 26.3417  0.0000000E+00
 26.3639  0.0000000E+00
 26.386  0.0000000E+00
 26.4081  0.0000000E+00
 26.4302  0.0000000E+00
 26.4523  0.0000000E+00
 26.4744  0.0000000E+00
 26.4965  0.0000000E+00
 26.5186  0.0000000E+00
 26.5407  0.0000000E+00
 26.5628  0.0000000E+00
 26.5849  0.0000000E+00
 26.607  0.0000000E+00
 26.6291  0.0000000E+00
 26.6513  0.0000000E+00
 26.6734  0.0000000E+00
 26.6955  0.0000000E+00
 26.7176  0.0000000E+00
 26.7397  0.0000000E+00
 26.7618  0.0000000E+00
 26.7839  0.0000000E+00
 26.806  0.0000000E+00
 26.8281  0.0000000E+00
 26.8502  0.0000000E+00
 26.8723  0.0000000E+00
 26.8944  0.0000000E+00
 26.9166  0.0000000E+00
 26.9387  0.0000000E+00
 26.9608  0.0000000E+00
 26.9829  0.0000000E+00
 27.005  0.0000000E+00
 27.0271  0.0000000E+00
 27.0492  0.0000000E+00
 27.0713  0.0000000E+00
 27.0934  0.0000000E+00
 27.1155  0.0000000E+00
 27.1376  0.0000000E+00
 27.1597  0.0000000E+00
 27.1818  0.0000000E+00
 27.204  0.0000000E+00
 27.2261  0.0000000E+00
 27.2482  0.0000000E+00
 27.2703  0.0000000E+00
 27.2924  0.0000000E+00
 27.3145  0.0000000E+00
 27.3366  0.0000000E+00
 27.3587  0.0000000E+00
 27.3808  0.0000000E+00
 27.4029  0.0000000E+00
 27.425  0.0000000E+00
 27.4471  0.0000000E+00
 27.4693  0.0000000E+00
 27.4914  0.0000000E+00
 27.5135  0.0000000E+00
 27.5356  0.0000000E+00
 27.5577  0.0000000E+00
 27.5798  0.0000000E+00
 27.6019  0.0000000E+00
 27.624  0.0000000E+00
 27.6461  0.0000000E+00
 27.6682  0.0000000E+00
 27.6903  0.0000000E+00
 27.7124  0.0000000E+00
 27.7345  0.0000000E+00
 27.7567  0.0000000E+00
 27.7788  0.0000000E+00
 27.8009  0.0000000E+00
 27.823  0.0000000E+00
 27.8451  0.0000000E+00
 27.8672  0.0000000E+00
 27.8893  0.0000000E+00
 27.9114  0.0000000E+00
 27.9335  0.0000000E+00
 27.9556  0.0000000E+00
 27.9777  0.0000000E+00
 27.9998  0.0000000E+00
 28.022  0.0000000E+00
 28.0441  0.0000000E+00
 28.0662  0.0000000E+00
 28.0883  0.0000000E+00
 28.1104  0.0000000E+00
 28.1325  0.0000000E+00
 28.1546  0.0000000E+00
 28.1767  0.0000000E+00
 28.1988  0.0000000E+00
 28.2209  0.0000000E+00
 28.243  0.0000000E+00
 28.2651  0.0000000E+00
 28.2873  0.0000000E+00
 28.3094  0.0000000E+00
 28.3315  0.0000000E+00
 28.3536  0.0000000E+00
 28.3757  0.0000000E+00
 28.3978  0.0000000E+00
 28.4199  0.0000000E+00
 28.442  0.0000000E+00
 28.4641  0.0000000E+00
 28.4862  0.0000000E+00
 28.5083  0.0000000E+00
 28.5304  0.0000000E+00
 28.5525  0.0000000E+00
 28.5747  0.0000000E+00
 28.5968  0.0000000E+00
 28.6189  0.0000000E+00
 28.641  0.0000000E+00
 28.6631  0.0000000E+00
 28.6852  0.0000000E+00
 28.7073  0.0000000E+00
 28.7294  0.0000000E+00
 28.7515  0.0000000E+00
 28.7736  0.0000000E+00
 28.7957  0.0000000E+00
 28.8178  0.0000000E+00
 28.84  0.0000000E+00
 28.8621  0.0000000E+00
 28.8842  0.0000000E+00
 28.9063  0.0000000E+00
 28.9284  0.0000000E+00
 28.9505  0.0000000E+00
 28.9726  0.0000000E+00
 28.9947  0.0000000E+00
 29.0168  0.0000000E+00
 29.0389  0.0000000E+00
 29.061  0.0000000E+00
 29.0831  0.0000000E+00
 29.1052  0.0000000E+00
 29.1274  0.0000000E+00
 29.1495  0.0000000E+00
 29.1716  0.0000000E+00
 29.1937  0.0000000E+00
 29.2158  0.0000000E+00
 29.2379  0.0000000E+00
 29.26  0.0000000E+00
 29.2821  0.0000000E+00
 29.3042  0.0000000E+00
 29.3263  0.0000000E+00
 29.3484  0.0000000E+00
 29.3705  0.0000000E+00
 29.3927  0.0000000E+00
 29.4148  0.0000000E+00
 29.4369  0.0000000E+00
 29.459  0.0000000E+00
 29.4811  0.0000000E+00
 29.5032  0.0000000E+00
 29.5253  0.0000000E+00
 29.5474  0.0000000E+00
 29.5695  0.0000000E+00
 29.5916  0.0000000E+00
 29.6137  0.0000000E+00
 29.6358  0.0000000E+00
 29.658  0.0000000E+00
 29.6801  0.0000000E+00
 29.7022  0.0000000E+00
 29.7243  0.0000000E+00
 29.7464  0.0000000E+00
 29.7685  0.0000000E+00
 29.7906  0.0000000E+00
 29.8127  0.0000000E+00
 29.8348  0.0000000E+00
 29.8569  0.0000000E+00
 29.879  0.0000000E+00
 29.9011  0.0000000E+00
 29.9232  0.0000000E+00
 29.9454  0.0000000E+00
 29.9675  0.0000000E+00
 29.9896  0.0000000E+00
 30.0117  0.0000000E+00
 30.0338  0.0000000E+00
 30.0559  0.0000000E+00
 30.078  0.0000000E+00
 30.1001  0.0000000E+00
 30.1222  0.0000000E+00
 30.1443  0.0000000E+00
 30.1664  0.0000000E+00
 30.1885  0.0000000E+00
 30.2107  0.0000000E+00
 30.2328  0.0000000E+00
 30.2549  0.0000000E+00
 30.277  0.0000000E+00
 30.2991  0.0000000E+00
 30.3212  0.0000000E+00
 30.3433  0.0000000E+00
 30.3654  0.0000000E+00
 30.3875  0.0000000E+00
 30.4096  0.0000000E+00
 30.4317  0.0000000E+00
 30.4538  0.0000000E+00
 30.4759  0.0000000E+00
 30.4981  0.0000000E+00
 30.5202  0.0000000E+00
 30.5423  0.0000000E+00
 30.5644  0.0000000E+00
 30.5865  0.0000000E+00
 30.6086  0.0000000E+00
 30.6307  0.0000000E+00
 30.6528  0.0000000E+00
 30.6749  0.0000000E+00
 30.697  0.0000000E+00
 30.7191  0.0000000E+00
 30.7412  0.0000000E+00
 30.7634  0.0000000E+00
 30.7855  0.0000000E+00
 30.8076  0.0000000E+00
 30.8297  0.0000000E+00
 30.8518  0.0000000E+00
 30.8739  0.0000000E+00
 30.896  0.0000000E+00
 30.9181  0.0000000E+00
 30.9402  0.0000000E+00
 30.9623  0.0000000E+00
 30.9844  0.0000000E+00
 31.0065  0.0000000E+00
 31.0286  0.0000000E+00
 31.0508  0.0000000E+00
 31.0729  0.0000000E+00
 31.095  0.0000000E+00
 31.1171  0.0000000E+00
 31.1392  0.0000000E+00
 31.1613  0.0000000E+00
 31.1834  0.0000000E+00
 31.2055  0.0000000E+00
 31.2276  0.0000000E+00
 31.2497  0.0000000E+00
 31.2718  0.0000000E+00
 31.2939  0.0000000E+00
 31.3161  0.0000000E+00
 31.3382  0.0000000E+00
 31.3603  0.0000000E+00
 31.3824  0.0000000E+00
 31.4045  0.0000000E+00
 31.4266  0.0000000E+00
 31.4487  0.0000000E+00
 31.4708  0.0000000E+00
 31.4929  0.0000000E+00
 31.515  0.0000000E+00
 31.5371  0.0000000E+00
 31.5592  0.0000000E+00
 31.5814  0.0000000E+00
 31.6035  0.0000000E+00
 31.6256  0.0000000E+00
 31.6477  0.0000000E+00
 31.6698  0.0000000E+00
 31.6919  0.0000000E+00
 31.714  0.0000000E+00
 31.7361  0.0000000E+00
 31.7582  0.0000000E+00
 31.7803  0.0000000E+00
 31.8024  0.0000000E+00
 31.8245  0.0000000E+00
 31.8466  0.0000000E+00
 31.8688  0.0000000E+00
 31.8909  0.0000000E+00
 31.913  0.0000000E+00
 31.9351  0.0000000E+00
 31.9572  0.0000000E+00
 31.9793  0.0000000E+00
 32.0014  0.0000000E+00
 32.0235  0.0000000E+00
 32.0456  0.0000000E+00
 32.0677  0.0000000E+00
 32.0898  0.0000000E+00
 32.1119  0.0000000E+00
 32.1341  0.0000000E+00
 32.1562  0.0000000E+00
 32.1783  0.0000000E+00
 32.2004  0.0000000E+00
 32.2225  0.0000000E+00
 32.2446  0.0000000E+00
 32.2667  0.0000000E+00
 32.2888  0.0000000E+00
 32.3109  0.0000000E+00
 32.333  0.0000000E+00
 32.3551  0.0000000E+00
 32.3772  0.0000000E+00
 32.3993  0.0000000E+00
 32.4215  0.0000000E+00
 32.4436  0.0000000E+00
 32.4657  0.0000000E+00
 32.4878  0.0000000E+00
 32.5099  0.0000000E+00
 32.532  0.0000000E+00
 32.5541  0.0000000E+00
 32.5762  0.0000000E+00
 32.5983  0.0000000E+00
 32.6204  0.0000000E+00
 32.6425  0.0000000E+00
 32.6646  0.0000000E+00
 32.6868  0.0000000E+00
 32.7089  0.0000000E+00
 32.731  0.0000000E+00